,timestamp,acc_x,acc_y,acc_z,gyro_x,gyro_y,gyro_z
0,1680362650526,0.5403966903686523,0.01644754409790039,-0.014215469360351562,0.5403966903686523,0.01644754409790039,-0.014215469360351562
1,1680362650541,0.33623427152633667,-0.09264659881591797,-0.24019145965576172,0.33623427152633667,-0.09264659881591797,-0.24019145965576172
2,1680362650547,0.1406111717224121,-0.03140449523925781,0.11555194854736328,0.1406111717224121,-0.03140449523925781,0.11555194854736328
3,1680362650556,-0.1479901671409607,0.028152942657470703,0.4164581298828125,-0.1479901671409607,0.028152942657470703,0.4164581298828125
4,1680362650566,-0.44686347246170044,0.3230290412902832,0.32790374755859375,-0.44686347246170044,0.3230290412902832,0.32790374755859375
5,1680362650576,-0.52529376745224,0.30797815322875977,0.022733688354492188,-0.52529376745224,0.30797815322875977,0.022733688354492188
6,1680362650585,-0.4053018093109131,0.16313886642456055,-0.0949716567993164,-0.4053018093109131,0.16313886642456055,-0.0949716567993164
7,1680362650595,-0.28650975227355957,0.10239839553833008,-0.09402084350585938,-0.28650975227355957,0.10239839553833008,-0.09402084350585938
8,1680362650604,-0.23520410060882568,0.06457328796386719,0.029402732849121094,-0.23520410060882568,0.06457328796386719,0.029402732849121094
9,1680362650613,-0.26458877325057983,0.1009984016418457,0.15707874298095703,-0.26458877325057983,0.1009984016418457,0.15707874298095703
10,1680362650624,-0.2975831627845764,0.14735126495361328,0.13101959228515625,-0.2975831627845764,0.14735126495361328,0.13101959228515625
11,1680362650634,-0.23182570934295654,0.2687397003173828,-0.060868263244628906,-0.23182570934295654,0.2687397003173828,-0.060868263244628906
12,1680362650643,-0.08263969421386719,0.14905166625976562,-0.11905574798583984,-0.08263969421386719,0.14905166625976562,-0.11905574798583984
13,1680362650653,0.1549280285835266,0.0034189224243164062,-0.17706966400146484,0.1549280285835266,0.0034189224243164062,-0.17706966400146484
14,1680362650662,0.24496591091156006,-0.026198863983154297,-0.3461437225341797,0.24496591091156006,-0.026198863983154297,-0.3461437225341797
15,1680362650672,0.21572643518447876,0.0400238037109375,-0.274658203125,0.21572643518447876,0.0400238037109375,-0.274658203125
16,1680362650682,0.003927052021026611,0.044719696044921875,0.14386653900146484,0.003927052021026611,0.044719696044921875,0.14386653900146484
17,1680362650691,-0.12315869331359863,-0.06296968460083008,0.002849578857421875,-0.12315869331359863,-0.06296968460083008,0.002849578857421875
18,1680362650701,-0.009041070938110352,-0.08288240432739258,-0.5172338485717773,-0.009041070938110352,-0.08288240432739258,-0.5172338485717773
19,1680362650710,0.13172686100006104,0.026540279388427734,-0.7365932464599609,0.13172686100006104,0.026540279388427734,-0.7365932464599609
20,1680362650719,0.1929689645767212,0.016051769256591797,-0.7198400497436523,0.1929689645767212,0.016051769256591797,-0.7198400497436523
21,1680362650729,0.17523354291915894,0.033972740173339844,-0.6441984176635742,0.17523354291915894,0.033972740173339844,-0.6441984176635742
22,1680362650740,0.16058379411697388,0.20540714263916016,-2.4678945541381836,0.16058379411697388,0.20540714263916016,-2.4678945541381836
23,1680362650747,0.5984501838684082,0.5657792091369629,0.29013633728027344,0.5984501838684082,0.5657792091369629,0.29013633728027344
24,1680362650758,0.22583377361297607,0.3471646308898926,0.7382898330688477,0.22583377361297607,0.3471646308898926,0.7382898330688477
25,1680362650766,-0.2949299216270447,0.396975040435791,1.1678695678710938,-0.2949299216270447,0.396975040435791,1.1678695678710938
26,1680362650777,-0.45426303148269653,0.5268416404724121,1.0776128768920898,-0.45426303148269653,0.5268416404724121,1.0776128768920898
27,1680362650786,-0.38041412830352783,0.6284289360046387,0.8980808258056641,-0.38041412830352783,0.6284289360046387,0.8980808258056641
28,1680362650796,-0.0730944275856018,0.5755496025085449,0.3648662567138672,-0.0730944275856018,0.5755496025085449,0.3648662567138672
29,1680362650806,0.20294669270515442,0.02172565460205078,-0.7207832336425781,0.20294669270515442,0.02172565460205078,-0.7207832336425781
30,1680362650837,0.4740336239337921,-0.03688335418701172,-1.1428461074829102,0.4740336239337921,-0.03688335418701172,-1.1428461074829102
31,1680362650837,0.39875563979148865,0.1374521255493164,-0.9477243423461914,0.39875563979148865,0.1374521255493164,-0.9477243423461914
32,1680362650837,0.1147330105304718,-0.05445051193237305,-0.04696464538574219,0.1147330105304718,-0.05445051193237305,-0.04696464538574219
33,1680362650848,-0.11244961619377136,-0.26248645782470703,0.5006675720214844,-0.11244961619377136,-0.26248645782470703,0.5006675720214844
34,1680362718620,-0.031243816018104553,0.004288453608751297,-0.043967247009277344,-0.031243816018104553,0.004288453608751297,-0.043967247009277344
35,1680362718620,0.014942392706871033,-0.02790866233408451,-0.030577659606933594,0.014942392706871033,-0.02790866233408451,-0.030577659606933594
36,1680362718620,0.02007119730114937,-0.04861058294773102,-0.03828620910644531,0.02007119730114937,-0.04861058294773102,-0.03828620910644531
37,1680362718620,0.0031863264739513397,-0.050511814653873444,-0.0348052978515625,0.0031863264739513397,-0.050511814653873444,-0.0348052978515625
38,1680362718620,0.018451500684022903,-0.03304373100399971,-0.03410053253173828,0.018451500684022903,-0.03304373100399971,-0.03410053253173828
39,1680362718645,0.026143256574869156,-0.03040396422147751,-0.016013145446777344,0.026143256574869156,-0.03040396422147751,-0.016013145446777344
40,1680362718651,0.0045660436153411865,0.009747598320245743,-0.012644767761230469,0.0045660436153411865,0.009747598320245743,-0.012644767761230469
41,1680362718653,-0.03129304572939873,0.02492750808596611,-0.036368370056152344,-0.03129304572939873,0.02492750808596611,-0.036368370056152344
42,1680362718658,-0.03151196241378784,0.03928467631340027,-0.03858661651611328,-0.03151196241378784,0.03928467631340027,-0.03858661651611328
43,1680362718668,-0.03633720055222511,0.04179931432008743,-0.027297019958496094,-0.03633720055222511,0.04179931432008743,-0.027297019958496094
44,1680362718675,-0.05211795121431351,0.026232454925775528,-0.025780677795410156,-0.05211795121431351,0.026232454925775528,-0.025780677795410156
45,1680362718685,-0.042387571185827255,0.009295959025621414,-0.015358924865722656,-0.042387571185827255,0.009295959025621414,-0.015358924865722656
46,1680362718700,0.0030946917831897736,-0.013797428458929062,-0.007778167724609375,0.0030946917831897736,-0.013797428458929062,-0.007778167724609375
47,1680362718704,0.014520309865474701,0.005198221653699875,-0.025630950927734375,0.014520309865474701,0.005198221653699875,-0.025630950927734375
48,1680362718718,0.03242764621973038,-0.006248068064451218,-0.017620086669921875,0.03242764621973038,-0.006248068064451218,-0.017620086669921875
49,1680362718725,0.03119824454188347,-0.01264023408293724,-0.0054111480712890625,0.03119824454188347,-0.01264023408293724,-0.0054111480712890625
50,1680362718735,0.032374847680330276,-0.01408931240439415,0.0017023086547851562,0.032374847680330276,-0.01408931240439415,0.0017023086547851562
51,1680362718741,0.028962597250938416,-0.027097206562757492,-0.009850502014160156,0.028962597250938416,-0.027097206562757492,-0.009850502014160156
52,1680362718751,0.011811267584562302,-0.014339618384838104,-0.02097320556640625,0.011811267584562302,-0.014339618384838104,-0.02097320556640625
53,1680362718768,0.013752982020378113,-0.02269938960671425,-0.0063686370849609375,0.013752982020378113,-0.02269938960671425,-0.0063686370849609375
54,1680362718785,-0.02578234300017357,-0.00782977044582367,0.00539398193359375,-0.02578234300017357,-0.00782977044582367,0.00539398193359375
55,1680362718785,-0.03637118265032768,0.013219155371189117,-0.017907142639160156,-0.03637118265032768,0.013219155371189117,-0.017907142639160156
56,1680362718796,-0.0420338436961174,0.012769211083650589,-0.0034303665161132812,-0.0420338436961174,0.012769211083650589,-0.0034303665161132812
57,1680362718800,-0.042909637093544006,0.019414670765399933,-0.010259628295898438,-0.042909637093544006,0.019414670765399933,-0.010259628295898438
58,1680362718813,-0.009050622582435608,0.03998831659555435,-0.02152729034423828,-0.009050622582435608,0.03998831659555435,-0.02152729034423828
59,1680362718819,-0.008593928068876266,0.029601316899061203,-0.016243934631347656,-0.008593928068876266,0.029601316899061203,-0.016243934631347656
60,1680362718829,0.001016072928905487,0.008046317845582962,-0.011115074157714844,0.001016072928905487,0.008046317845582962,-0.011115074157714844
61,1680362718838,0.010590102523565292,-0.01753915473818779,-0.02009105682373047,0.010590102523565292,-0.01753915473818779,-0.02009105682373047
62,1680362718847,0.031411390751600266,-0.033015571534633636,-0.014888763427734375,0.031411390751600266,-0.033015571534633636,-0.014888763427734375
63,1680362718858,0.02597317472100258,-0.015497162938117981,-0.021463394165039062,0.02597317472100258,-0.015497162938117981,-0.021463394165039062
64,1680362718866,0.023029875010252,-0.019651178270578384,-0.013916015625,0.023029875010252,-0.019651178270578384,-0.013916015625
65,1680362718878,0.010744649916887283,-0.007276326417922974,-0.0065555572509765625,0.010744649916887283,-0.007276326417922974,-0.0065555572509765625
66,1680362718886,-0.010442152619361877,0.009567156434059143,0.005272865295410156,-0.010442152619361877,0.009567156434059143,0.005272865295410156
67,1680362718895,-0.0334562286734581,0.023446090519428253,0.0028066635131835938,-0.0334562286734581,0.023446090519428253,0.0028066635131835938
68,1680362718907,-0.027686670422554016,0.03244226798415184,-0.004261016845703125,-0.027686670422554016,0.03244226798415184,-0.004261016845703125
69,1680362718914,-0.01974155381321907,0.029563207179307938,0.0028429031372070312,-0.01974155381321907,0.029563207179307938,0.0028429031372070312
70,1680362718927,-0.038046132773160934,0.017304006963968277,-0.004229545593261719,-0.038046132773160934,0.017304006963968277,-0.004229545593261719
71,1680362718934,-0.02541634812951088,-0.006260160356760025,0.0075626373291015625,-0.02541634812951088,-0.006260160356760025,0.0075626373291015625
72,1680362718944,-0.010536536574363708,0.0011065378785133362,-0.020694732666015625,-0.010536536574363708,0.0011065378785133362,-0.020694732666015625
73,1680362718953,0.020321805030107498,-0.031483132392168045,-0.010890960693359375,0.020321805030107498,-0.031483132392168045,-0.010890960693359375
74,1680362718964,0.019971106201410294,-0.00249302014708519,-0.010663032531738281,0.019971106201410294,-0.00249302014708519,-0.010663032531738281
75,1680362718973,0.03381313756108284,-0.013946045190095901,-0.008098602294921875,0.03381313756108284,-0.013946045190095901,-0.008098602294921875
76,1680362718981,0.03343423828482628,-0.020382221788167953,-0.00089263916015625,0.03343423828482628,-0.020382221788167953,-0.00089263916015625
77,1680362718995,0.0025735311210155487,0.010510563850402832,0.0061550140380859375,0.0025735311210155487,0.010510563850402832,0.0061550140380859375
78,1680362719001,0.002597138285636902,0.00806259736418724,-0.017429351806640625,0.002597138285636902,0.00806259736418724,-0.017429351806640625
79,1680362719011,-0.02320275828242302,0.02210254967212677,-0.01710033416748047,-0.02320275828242302,0.02210254967212677,-0.01710033416748047
80,1680362719021,-0.015533216297626495,0.007817022502422333,-0.000339508056640625,-0.015533216297626495,0.007817022502422333,-0.000339508056640625
81,1680362719034,-0.038667626678943634,0.000962674617767334,-0.00033283233642578125,-0.038667626678943634,0.000962674617767334,-0.00033283233642578125
82,1680362719040,-0.04720341041684151,0.01748930662870407,0.0020112991333007812,-0.04720341041684151,0.01748930662870407,0.0020112991333007812
83,1680362719049,-0.03208289295434952,0.012594461441040039,0.00197601318359375,-0.03208289295434952,0.012594461441040039,0.00197601318359375
84,1680362719058,-0.00794299691915512,0.01012720912694931,-0.00039768218994140625,-0.00794299691915512,0.01012720912694931,-0.00039768218994140625
85,1680362719067,0.004136513918638229,0.02193129062652588,-0.014506340026855469,0.004136513918638229,0.02193129062652588,-0.014506340026855469
86,1680362719079,0.034847088158130646,-0.023043647408485413,0.0069065093994140625,0.034847088158130646,-0.023043647408485413,0.0069065093994140625
87,1680362719087,0.03433796763420105,-0.031740374863147736,-0.0002593994140625,0.03433796763420105,-0.031740374863147736,-0.0002593994140625
88,1680362719097,0.031707774847745895,-0.030882608145475388,0.0044422149658203125,0.031707774847745895,-0.030882608145475388,0.0044422149658203125
89,1680362719109,0.031253401190042496,-0.018274907022714615,-0.005038261413574219,0.031253401190042496,-0.018274907022714615,-0.005038261413574219
90,1680362719116,0.03316207975149155,-0.022338278591632843,0.009166717529296875,0.03316207975149155,-0.022338278591632843,0.009166717529296875
91,1680362719126,-2.648681402206421e-05,0.003907579928636551,-0.016869544982910156,-2.648681402206421e-05,0.003907579928636551,-0.016869544982910156
92,1680362719135,-0.007019277662038803,0.036993660032749176,-0.002468109130859375,-0.007019277662038803,0.036993660032749176,-0.002468109130859375
93,1680362719145,-0.013880293816328049,0.029189806431531906,0.004624366760253906,-0.013880293816328049,0.029189806431531906,0.004624366760253906
94,1680362719154,-0.02053067833185196,0.014703024178743362,0.0069026947021484375,-0.02053067833185196,0.014703024178743362,0.0069026947021484375
95,1680362719164,-0.0176479984074831,0.02172573283314705,0.009143829345703125,-0.0176479984074831,0.02172573283314705,0.009143829345703125
96,1680362719174,-0.017055485397577286,0.011946279555559158,0.004279136657714844,-0.017055485397577286,0.011946279555559158,0.004279136657714844
97,1680362719184,-0.007290121167898178,0.004784010350704193,-0.005200386047363281,-0.007290121167898178,0.004784010350704193,-0.005200386047363281
98,1680362719194,0.02125575952231884,-0.014007065445184708,-0.002758026123046875,0.02125575952231884,-0.014007065445184708,-0.002758026123046875
99,1680362719203,0.023329615592956543,-0.004376046359539032,-0.00742340087890625,0.023329615592956543,-0.004376046359539032,-0.00742340087890625
100,1680362719213,0.015960868448019028,0.0032034367322921753,0.002109527587890625,0.015960868448019028,0.0032034367322921753,0.002109527587890625
101,1680362719223,0.04399123787879944,-0.015576645731925964,-0.0026216506958007812,0.04399123787879944,-0.015576645731925964,-0.0026216506958007812
102,1680362719232,0.01050802506506443,0.006294064223766327,-0.004931449890136719,0.01050802506506443,0.006294064223766327,-0.004931449890136719
103,1680362719242,-0.0035997889935970306,0.011117622256278992,0.009270668029785156,-0.0035997889935970306,0.011117622256278992,0.009270668029785156
104,1680362719252,-0.015116766095161438,0.013505078852176666,0.011472702026367188,-0.015116766095161438,0.013505078852176666,0.011472702026367188
105,1680362719261,-0.0004475954920053482,0.023016221821308136,-0.012259483337402344,-0.0004475954920053482,0.023016221821308136,-0.012259483337402344
106,1680362719271,-0.019309060648083687,0.01332942396402359,-0.004986763000488281,-0.019309060648083687,0.01332942396402359,-0.004986763000488281
107,1680362719281,-0.025853384286165237,0.003689907491207123,0.002147674560546875,-0.025853384286165237,0.003689907491207123,0.002147674560546875
108,1680362719290,-0.027592822909355164,0.0085408054292202,-0.007294654846191406,-0.027592822909355164,0.0085408054292202,-0.007294654846191406
109,1680362719300,0.0012908633798360825,0.013551045209169388,-0.007171630859375,0.0012908633798360825,0.013551045209169388,-0.007171630859375
110,1680362719309,0.0013415142893791199,0.013652589172124863,1.71661376953125e-05,0.0013415142893791199,0.013652589172124863,1.71661376953125e-05
111,1680362719319,0.00833180546760559,0.0045708343386650085,0.004715919494628906,0.00833180546760559,0.0045708343386650085,0.004715919494628906
112,1680362719328,0.010733436793088913,-0.002468857914209366,0.006993293762207031,0.010733436793088913,-0.002468857914209366,0.006993293762207031
113,1680362719338,0.03426694869995117,-0.013974875211715698,0.0045223236083984375,0.03426694869995117,-0.013974875211715698,0.0045223236083984375
114,1680362719346,0.005418548360466957,-0.0014245100319385529,-0.004958152770996094,0.005418548360466957,-0.0014245100319385529,-0.004958152770996094
115,1680362719357,0.026699351146817207,-0.008349277079105377,0.0021762847900390625,0.026699351146817207,-0.008349277079105377,0.0021762847900390625
116,1680362719367,0.010077852755784988,0.001077108085155487,-0.014321327209472656,0.010077852755784988,0.001077108085155487,-0.014321327209472656
117,1680362719377,-0.022950787097215652,0.01281343400478363,0.004733085632324219,-0.022950787097215652,0.01281343400478363,0.004733085632324219
118,1680362719386,-0.015330199152231216,0.019756227731704712,0.014061927795410156,-0.015330199152231216,0.019756227731704712,0.014061927795410156
119,1680362719396,-0.0032370425760746002,0.02446778118610382,-0.000274658203125,-0.0032370425760746002,0.02446778118610382,-0.000274658203125
120,1680362719405,-0.028880422934889793,0.014868166297674179,0.00678253173828125,-0.028880422934889793,0.014868166297674179,0.00678253173828125
121,1680362719415,-0.007027376443147659,0.031184207648038864,-0.0121612548828125,-0.007027376443147659,0.031184207648038864,-0.0121612548828125
122,1680362719425,0.007379336282610893,0.01464574784040451,-0.0025339126586914062,0.007379336282610893,0.01464574784040451,-0.0025339126586914062
123,1680362719434,0.012040484696626663,0.002628277987241745,-0.004847526550292969,0.012040484696626663,0.002628277987241745,-0.004847526550292969
124,1680362719443,0.019092297181487083,-0.008962690830230713,-0.014173507690429688,0.019092297181487083,-0.008962690830230713,-0.014173507690429688
125,1680362719451,0.011779941618442535,-0.02036048099398613,-0.013936042785644531,0.011779941618442535,-0.02036048099398613,-0.013936042785644531
126,1680362719463,0.030375374481081963,-0.012864794582128525,-0.00429534912109375,0.030375374481081963,-0.012864794582128525,-0.00429534912109375
127,1680362719473,0.03228314220905304,-0.010528329759836197,0.00048542022705078125,0.03228314220905304,-0.010528329759836197,0.00048542022705078125
128,1680362719482,0.010759750381112099,0.020105689764022827,0.0028171539306640625,0.010759750381112099,0.020105689764022827,0.0028171539306640625
129,1680362719492,0.0038272906094789505,0.015403587371110916,-0.0019254684448242188,0.0038272906094789505,0.015403587371110916,-0.0019254684448242188
130,1680362719502,-0.01734890416264534,0.0273507721722126,-0.013654708862304688,-0.01734890416264534,0.0273507721722126,-0.013654708862304688
131,1680362719511,-0.021682007238268852,0.01792890578508377,0.01715373992919922,-0.021682007238268852,0.01792890578508377,0.01715373992919922
132,1680362719521,-0.025846661999821663,0.02018675208091736,0.007460594177246094,-0.025846661999821663,0.02018675208091736,0.007460594177246094
133,1680362719530,-0.0018153060227632523,0.015370555222034454,0.00028514862060546875,-0.0018153060227632523,0.015370555222034454,0.00028514862060546875
134,1680362719539,0.005580084398388863,0.00826353207230568,-0.01619434356689453,0.005580084398388863,0.00826353207230568,-0.01619434356689453
135,1680362719550,0.010369453579187393,0.029753588140010834,-0.018278121948242188,0.010369453579187393,0.029753588140010834,-0.018278121948242188
136,1680362719559,-0.006189722567796707,0.008737638592720032,0.012624740600585938,-0.006189722567796707,0.008737638592720032,0.012624740600585938
137,1680362719569,0.02938934788107872,0.015763014554977417,0.0029916763305664062,0.02938934788107872,0.015763014554977417,0.0029916763305664062
138,1680362719579,0.022018389776349068,-0.0004207491874694824,-0.0017518997192382812,0.022018389776349068,-0.0004207491874694824,-0.0017518997192382812
139,1680362719588,0.024192506447434425,0.002382025122642517,-0.008788108825683594,0.024192506447434425,0.002382025122642517,-0.008788108825683594
140,1680362719598,0.016923172399401665,0.0003156699240207672,-0.0015735626220703125,0.016923172399401665,0.0003156699240207672,-0.0015735626220703125
141,1680362719608,0.030834510922431946,-0.015947561711072922,-0.0062580108642578125,0.030834510922431946,-0.015947561711072922,-0.0062580108642578125
142,1680362719617,-0.004910975694656372,0.00818856805562973,0.0032558441162109375,-0.004910975694656372,0.00818856805562973,0.0032558441162109375
143,1680362719626,0.007007960230112076,0.0032201074063777924,-0.001495361328125,0.007007960230112076,0.0032201074063777924,-0.001495361328125
144,1680362719636,-0.03056967630982399,0.017501603811979294,-0.008536338806152344,-0.03056967630982399,0.017501603811979294,-0.008536338806152344
145,1680362719646,0.0029638372361660004,0.04811837151646614,-0.008392333984375,0.0029638372361660004,0.04811837151646614,-0.008392333984375
146,1680362719655,-0.013374501839280128,0.021762710064649582,-0.0058956146240234375,-0.013374501839280128,0.021762710064649582,-0.0058956146240234375
147,1680362719665,0.00115237757563591,0.02161562815308571,-0.0057964324951171875,0.00115237757563591,0.02161562815308571,-0.0057964324951171875
148,1680362719675,0.008370017632842064,0.0025433748960494995,-0.000988006591796875,0.008370017632842064,0.0025433748960494995,-0.000988006591796875
149,1680362719684,0.015483003109693527,0.023888230323791504,0.0037260055541992188,0.015483003109693527,0.023888230323791504,0.0037260055541992188
150,1680362719693,0.010698894038796425,0.0025350935757160187,0.0036649703979492188,0.010698894038796425,0.0025350935757160187,0.0036649703979492188
151,1680362719703,0.0365886464715004,-0.009280558675527573,0.02243328094482422,0.0365886464715004,-0.009280558675527573,0.02243328094482422
152,1680362719713,0.010393556207418442,0.010017726570367813,0.010296821594238281,0.010393556207418442,0.010017726570367813,0.010296821594238281
153,1680362719722,0.022282840684056282,0.0030155926942825317,-0.0063495635986328125,0.022282840684056282,0.0030155926942825317,-0.0063495635986328125
154,1680362719732,0.012577606365084648,0.008005034178495407,0.0055217742919921875,0.012577606365084648,0.008005034178495407,0.0055217742919921875
155,1680362719742,-0.022735944017767906,0.00842578336596489,0.0030765533447265625,-0.022735944017767906,0.00842578336596489,0.0030765533447265625
156,1680362719751,-0.0056961048394441605,0.015891317278146744,0.010095596313476562,-0.0056961048394441605,0.015891317278146744,0.010095596313476562
157,1680362719761,-0.00777210108935833,0.032204970717430115,-0.015954971313476562,-0.00777210108935833,0.032204970717430115,-0.015954971313476562
158,1680362719770,-0.016753224655985832,0.022349044680595398,-0.0015697479248046875,-0.016753224655985832,0.022349044680595398,-0.0015697479248046875
159,1680362719780,0.00039477646350860596,0.019851509481668472,-0.010966300964355469,0.00039477646350860596,0.019851509481668472,-0.010966300964355469
160,1680362719790,0.0076406579464674,0.02219008281826973,-0.01783466339111328,0.0076406579464674,0.02219008281826973,-0.01783466339111328
161,1680362719799,0.014525961130857468,0.017677374184131622,0.0036363601684570312,0.014525961130857468,0.017677374184131622,0.0036363601684570312
162,1680362719809,0.016824323683977127,0.017710432410240173,0.015339851379394531,0.016824323683977127,0.017710432410240173,0.015339851379394531
163,1680362719819,0.016729271039366722,0.012807775288820267,0.008031845092773438,0.016729271039366722,0.012807775288820267,0.008031845092773438
164,1680362719829,0.0025166328996419907,0.012810245156288147,-0.008576393127441406,0.0025166328996419907,0.012810245156288147,-0.008576393127441406
165,1680362719838,0.011844908818602562,0.0034061186015605927,-0.0037212371826171875,0.011844908818602562,0.0034061186015605927,-0.0037212371826171875
166,1680362719847,-0.004625817760825157,0.012974053621292114,0.017513275146484375,-0.004625817760825157,0.012974053621292114,0.017513275146484375
167,1680362719857,0.007400799542665482,0.01779748499393463,-0.011015892028808594,0.007400799542665482,0.01779748499393463,-0.011015892028808594
168,1680362719867,-0.009010860696434975,0.010763049125671387,-0.0014085769653320312,-0.009010860696434975,0.010763049125671387,-0.0014085769653320312
169,1680362719876,-0.001623811200261116,0.03176013007760048,-0.008453369140625,-0.001623811200261116,0.03176013007760048,-0.008453369140625
170,1680362719886,-0.0038632601499557495,0.010373756289482117,0.005808830261230469,-0.0038632601499557495,0.010373756289482117,0.005808830261230469
171,1680362719895,-0.010679999366402626,0.00830157846212387,0.010425567626953125,-0.010679999366402626,0.00830157846212387,0.010425567626953125
172,1680362719905,-0.010316601023077965,0.02495110034942627,0.010252952575683594,-0.010316601023077965,0.02495110034942627,0.010252952575683594
173,1680362719915,0.006403205916285515,0.03415939211845398,-0.008748054504394531,0.006403205916285515,0.03415939211845398,-0.008748054504394531
174,1680362719924,0.004125552251935005,0.017457857728004456,0.0055179595947265625,0.004125552251935005,0.017457857728004456,0.0055179595947265625
175,1680362719934,0.011182475835084915,0.015365023165941238,-0.0063343048095703125,0.011182475835084915,0.015365023165941238,-0.0063343048095703125
176,1680362719943,0.03695240244269371,-0.014931362122297287,0.005537986755371094,0.03695240244269371,-0.014931362122297287,0.005537986755371094
177,1680362719956,0.02946983091533184,-0.007399473339319229,-0.006317138671875,0.02946983091533184,-0.007399473339319229,-0.006317138671875
178,1680362719962,0.02669694647192955,0.004591505974531174,0.007906913757324219,0.02669694647192955,0.004591505974531174,0.007906913757324219
179,1680362719972,0.012094598263502121,0.011896386742591858,0.0030660629272460938,0.012094598263502121,0.011896386742591858,0.0030660629272460938
180,1680362719982,0.005026329308748245,0.018755648285150528,-0.001682281494140625,0.005026329308748245,0.018755648285150528,-0.001682281494140625
181,1680362719991,-0.004279252141714096,0.01619156077504158,-0.008721351623535156,-0.004279252141714096,0.01619156077504158,-0.008721351623535156
182,1680362720002,-0.00649004802107811,0.023078013211488724,-0.003864288330078125,-0.00649004802107811,0.023078013211488724,-0.003864288330078125
183,1680362720011,-0.01090729609131813,0.04890511929988861,0.02443981170654297,-0.01090729609131813,0.04890511929988861,0.02443981170654297
184,1680362720021,-0.02017202042043209,0.013127490878105164,-0.0018482208251953125,-0.02017202042043209,0.013127490878105164,-0.0018482208251953125
185,1680362720031,-0.003287956118583679,0.022870078682899475,-0.004170417785644531,-0.003287956118583679,0.022870078682899475,-0.004170417785644531
186,1680362720040,-0.007759792730212212,0.008936513215303421,0.0029535293579101562,-0.007759792730212212,0.008936513215303421,0.0029535293579101562
187,1680362720049,-0.002958519384264946,0.01156943291425705,0.009974479675292969,-0.002958519384264946,0.01156943291425705,0.009974479675292969
188,1680362720059,0.018222641199827194,0.018660061061382294,0.0027418136596679688,0.018222641199827194,0.018660061061382294,0.0027418136596679688
189,1680362720068,0.029755158349871635,-0.000491410493850708,-0.011423110961914062,0.029755158349871635,-0.000491410493850708,-0.011423110961914062
190,1680362720078,0.02473319135606289,-0.0048508718609809875,-0.011231422424316406,0.02473319135606289,-0.0048508718609809875,-0.011231422424316406
191,1680362720088,0.012630822136998177,0.019084971398115158,0.010144233703613281,0.012630822136998177,0.019084971398115158,0.010144233703613281
192,1680362720097,0.0030860956758260727,0.01909591630101204,-0.0135498046875,0.0030860956758260727,0.01909591630101204,-0.0135498046875
193,1680362720107,-0.013366030529141426,0.026159048080444336,0.000797271728515625,-0.013366030529141426,0.026159048080444336,0.000797271728515625
194,1680362720116,-0.003422992303967476,0.021130532026290894,0.012547492980957031,-0.003422992303967476,0.021130532026290894,0.012547492980957031
195,1680362720126,-0.026722606271505356,0.01886381208896637,0.021747589111328125,-0.026722606271505356,0.01886381208896637,0.021747589111328125
196,1680362720136,-0.0025491975247859955,0.037806469947099686,-0.011563301086425781,-0.0025491975247859955,0.037806469947099686,-0.011563301086425781
197,1680362720145,-0.007032701745629311,0.018800780177116394,0.0051059722900390625,-0.007032701745629311,0.018800780177116394,0.0051059722900390625
198,1680362720155,-0.01155330240726471,0.01634833589196205,0.012088775634765625,-0.01155330240726471,0.01634833589196205,0.012088775634765625
199,1680362720165,0.004962768405675888,0.018759291619062424,-0.016348838806152344,0.004962768405675888,0.018759291619062424,-0.016348838806152344
200,1680362720174,0.0356595441699028,-0.011931143701076508,0.009807586669921875,0.0356595441699028,-0.011931143701076508,0.009807586669921875
201,1680362720184,0.016195261850953102,0.0029387548565864563,-0.02094745635986328,0.016195261850953102,0.0029387548565864563,-0.02094745635986328
202,1680362720194,0.030230563133955002,0.0007506795227527618,0.0052852630615234375,0.030230563133955002,0.0007506795227527618,0.0052852630615234375
203,1680362720203,0.02286127209663391,0.008134562522172928,-0.006564140319824219,0.02286127209663391,0.008134562522172928,-0.006564140319824219
204,1680362720213,0.0014793537557125092,0.029050063341856003,0.0006113052368164062,0.0014793537557125092,0.029050063341856003,0.0006113052368164062
205,1680362720222,-0.0031681060791015625,0.0360594280064106,-0.027634620666503906,-0.0031681060791015625,0.0360594280064106,-0.027634620666503906
206,1680362720232,-0.0007012467831373215,0.03825414553284645,-0.008356094360351562,-0.0007012467831373215,0.03825414553284645,-0.008356094360351562
207,1680362720241,0.0017397310584783554,0.035365067422389984,0.012969017028808594,0.0017397310584783554,0.035365067422389984,0.012969017028808594
208,1680362720249,-0.0029116887599229813,0.023228313773870468,0.012753486633300781,-0.0029116887599229813,0.023228313773870468,0.012753486633300781
209,1680362720261,-0.00267716683447361,0.025187257677316666,-0.01569843292236328,-0.00267716683447361,0.025187257677316666,-0.01569843292236328
210,1680362720270,0.01648145541548729,0.010752446949481964,0.0033788681030273438,0.01648145541548729,0.010752446949481964,0.0033788681030273438
211,1680362720279,0.018747862428426743,0.003849092870950699,-0.001373291015625,0.018747862428426743,0.003849092870950699,-0.001373291015625
212,1680362720289,0.03027248941361904,0.001983053982257843,-0.008414268493652344,0.03027248941361904,0.001983053982257843,-0.008414268493652344
213,1680362720299,0.02290119044482708,0.014042243361473083,0.008202552795410156,0.02290119044482708,0.014042243361473083,0.008202552795410156
214,1680362720308,0.02482086606323719,1.6685575246810913e-05,-0.0084075927734375,0.02482086606323719,1.6685575246810913e-05,-0.0084075927734375
215,1680362720318,0.008245022967457771,0.026340261101722717,-0.008265495300292969,0.008245022967457771,0.026340261101722717,-0.008265495300292969
216,1680362720327,0.0013379435986280441,0.03340836241841316,-0.0057697296142578125,0.0013379435986280441,0.03340836241841316,-0.0057697296142578125
217,1680362720336,0.0016130879521369934,0.02386873960494995,0.013158798217773438,0.0016130879521369934,0.02386873960494995,0.013158798217773438
218,1680362720346,-0.00527927465736866,0.016748081892728806,0.0011777877807617188,-0.00527927465736866,0.016748081892728806,0.0011777877807617188
219,1680362720356,0.013810951262712479,0.011974390596151352,0.01056671142578125,0.013810951262712479,0.011974390596151352,0.01056671142578125
220,1680362720366,0.011298658326268196,0.012216225266456604,-0.0013713836669921875,0.011298658326268196,0.012216225266456604,-0.0013713836669921875
221,1680362720376,0.013650808483362198,0.012452363967895508,-0.013110160827636719,0.013650808483362198,0.012452363967895508,-0.013110160827636719
222,1680362720385,-0.014614781364798546,0.026467956602573395,-0.005839347839355469,-0.014614781364798546,0.026467956602573395,-0.005839347839355469
223,1680362720395,0.0068730562925338745,0.02601693943142891,-0.010453224182128906,0.0068730562925338745,0.02601693943142891,-0.010453224182128906
224,1680362720404,-0.00045933574438095093,0.035543154925107956,-0.012616157531738281,-0.00045933574438095093,0.035543154925107956,-0.012616157531738281
225,1680362720414,0.011385411024093628,0.004588227719068527,0.00876617431640625,0.011385411024093628,0.004588227719068527,0.00876617431640625
226,1680362720424,0.03245532512664795,-0.004792194813489914,-0.003143310546875,0.03245532512664795,-0.004792194813489914,-0.003143310546875
227,1680362720433,0.024920234456658363,-0.006964109838008881,-0.005446434020996094,0.024920234456658363,-0.006964109838008881,-0.005446434020996094
228,1680362720443,0.022237787023186684,0.0074877627193927765,0.00640869140625,0.022237787023186684,0.0074877627193927765,0.00640869140625
229,1680362720451,0.028767883777618408,-0.0016201324760913849,-0.005458831787109375,0.028767883777618408,-0.0016201324760913849,-0.005458831787109375
230,1680362720483,0.01188686490058899,0.008157633244991302,0.00170135498046875,0.01188686490058899,0.008157633244991302,0.00170135498046875
231,1680362720483,-0.002357758581638336,0.024809248745441437,0.011082649230957031,-0.002357758581638336,0.024809248745441437,0.011082649230957031
232,1680362720483,-0.0068288687616586685,0.024499963968992233,0.0014905929565429688,-0.0068288687616586685,0.024499963968992233,0.0014905929565429688
233,1680362720489,-0.013708570972084999,0.026551533490419388,-0.005600929260253906,-0.013708570972084999,0.026551533490419388,-0.005600929260253906
234,1680362720499,0.0004890188574790955,0.0262131504714489,-0.014914512634277344,0.0004890188574790955,0.0262131504714489,-0.014914512634277344
235,1680362720509,0.0076209139078855515,0.011873360723257065,-0.000545501708984375,0.0076209139078855515,0.011873360723257065,-0.000545501708984375
236,1680362720518,0.005099508911371231,0.0025956109166145325,0.011228561401367188,0.005099508911371231,0.0025956109166145325,0.011228561401367188
237,1680362720528,0.03343827649950981,-0.00910724326968193,-0.0007219314575195312,0.03343827649950981,-0.00910724326968193,-0.0007219314575195312
238,1680362720538,0.021191053092479706,-0.0017991475760936737,-0.017185211181640625,0.021191053092479706,-0.0017991475760936737,-0.017185211181640625
239,1680362720547,0.018555521965026855,0.019407592713832855,-0.009846687316894531,0.018555521965026855,0.019407592713832855,-0.009846687316894531
240,1680362720556,0.01585175283253193,0.033307548612356186,-0.00968170166015625,0.01585175283253193,0.033307548612356186,-0.00968170166015625
241,1680362720567,-0.01011042669415474,0.021204523742198944,0.011667251586914062,-0.01011042669415474,0.021204523742198944,0.011667251586914062
242,1680362720575,-0.016920441761612892,0.016468696296215057,-0.0026445388793945312,-0.016920441761612892,0.016468696296215057,-0.0026445388793945312
243,1680362720585,-0.0024606455117464066,0.009471099823713303,0.006809234619140625,-0.0024606455117464066,0.009471099823713303,0.006809234619140625
244,1680362720597,0.01637229509651661,0.00033041834831237793,-0.00035381317138671875,0.01637229509651661,0.00033041834831237793,-0.00035381317138671875
245,1680362720604,-0.00018887408077716827,0.0006541870534420013,0.0020084381103515625,-0.00018887408077716827,0.0006541870534420013,0.0020084381103515625
246,1680362720617,0.004598380997776985,0.024497956037521362,-0.014497756958007812,0.004598380997776985,0.024497956037521362,-0.014497756958007812
247,1680362720623,-0.009299101307988167,0.01489843800663948,0.0045604705810546875,-0.009299101307988167,0.01489843800663948,0.0045604705810546875
248,1680362720633,0.005048029124736786,0.026517551392316818,-0.021398544311523438,0.005048029124736786,0.026517551392316818,-0.021398544311523438
249,1680362720642,0.007280267775058746,0.014415659010410309,-0.013974189758300781,0.007280267775058746,0.014415659010410309,-0.013974189758300781
250,1680362720652,0.014172228053212166,0.028623569756746292,-0.020806312561035156,0.014172228053212166,0.028623569756746292,-0.020806312561035156
251,1680362720663,-0.002353524789214134,0.01424318179488182,0.00542449951171875,-0.002353524789214134,0.01424318179488182,0.00542449951171875
252,1680362720671,0.007294468581676483,0.00492694228887558,-0.015836715698242188,0.007294468581676483,0.00492694228887558,-0.015836715698242188
253,1680362720681,0.033016808331012726,-0.002005714923143387,-0.0038080215454101562,0.033016808331012726,-0.002005714923143387,-0.0038080215454101562
254,1680362720690,0.02077636308968067,0.01931789144873619,-0.020219802856445312,0.02077636308968067,0.01931789144873619,-0.020219802856445312
255,1680362720701,0.027668140828609467,-0.002086203545331955,-0.01045989990234375,0.027668140828609467,-0.002086203545331955,-0.01045989990234375
256,1680362720711,0.008562332019209862,0.007361792027950287,0.006173133850097656,0.008562332019209862,0.007361792027950287,0.006173133850097656
257,1680362720720,-0.003269914537668228,0.023689739406108856,-0.0009822845458984375,-0.003269914537668228,0.023689739406108856,-0.0009822845458984375
258,1680362720732,0.0016819294542074203,0.025867175310850143,-0.010373115539550781,0.0016819294542074203,0.025867175310850143,-0.010373115539550781
259,1680362720738,-0.009813515469431877,0.03260643780231476,0.020379066467285156,-0.009813515469431877,0.03260643780231476,0.020379066467285156
260,1680362720755,-0.009576395153999329,0.0205160453915596,0.001224517822265625,-0.009576395153999329,0.0205160453915596,0.001224517822265625
261,1680362720758,-4.7672539949417114e-05,0.013434894382953644,-0.0011501312255859375,-4.7672539949417114e-05,0.013434894382953644,-0.0011501312255859375
262,1680362720768,0.007206166163086891,0.01331515982747078,-0.0011310577392578125,0.007206166163086891,0.01331515982747078,-0.0011310577392578125
263,1680362720777,0.018810248002409935,0.0016573332250118256,-0.0034656524658203125,0.018810248002409935,0.0016573332250118256,-0.0034656524658203125
264,1680362720788,0.03280189633369446,-0.009917240589857101,-0.0010509490966796875,0.03280189633369446,-0.009917240589857101,-0.0010509490966796875
265,1680362720798,0.015853848308324814,-0.00023995712399482727,-0.008100509643554688,0.015853848308324814,-0.00023995712399482727,-0.008100509643554688
266,1680362720806,0.008483827114105225,0.009626757353544235,0.00615692138671875,0.008483827114105225,0.009626757353544235,0.00615692138671875
267,1680362720816,-0.012642940506339073,0.018864531069993973,0.008409500122070312,-0.012642940506339073,0.018864531069993973,0.008409500122070312
268,1680362720825,-0.0028390660881996155,0.025592666119337082,0.0012159347534179688,-0.0028390660881996155,0.025592666119337082,0.0012159347534179688
269,1680362720835,-0.0051712580025196075,0.025270305573940277,0.0035524368286132812,-0.0051712580025196075,0.025270305573940277,0.0035524368286132812
270,1680362720845,-0.002558436244726181,0.017901215702295303,-0.0059299468994140625,-0.002558436244726181,0.017901215702295303,-0.0059299468994140625
271,1680362720855,-0.009381936863064766,0.011087961494922638,0.0035943984985351562,-0.009381936863064766,0.011087961494922638,0.0035943984985351562
272,1680362720865,0.014487385749816895,0.0159434974193573,-0.010583877563476562,0.014487385749816895,0.0159434974193573,-0.010583877563476562
273,1680362720875,0.00031327642500400543,0.013538900762796402,-0.010406494140625,0.00031327642500400543,0.013538900762796402,-0.010406494140625
274,1680362720884,0.01438857801258564,0.020370792597532272,-0.010232925415039062,0.01438857801258564,0.020370792597532272,-0.010232925415039062
275,1680362720892,0.016689762473106384,0.010937098413705826,-0.003009796142578125,0.016689762473106384,0.010937098413705826,-0.003009796142578125
276,1680362720903,0.016596302390098572,0.01781206578016281,0.0041065216064453125,0.016596302390098572,0.01781206578016281,0.0041065216064453125
277,1680362720913,0.011681847274303436,0.013020340353250504,-0.014791488647460938,0.011681847274303436,0.013020340353250504,-0.014791488647460938
278,1680362720922,0.00697542168200016,0.015148866921663284,-0.014545440673828125,0.00697542168200016,0.015148866921663284,-0.014545440673828125
279,1680362720932,0.009385183453559875,0.019487619400024414,-0.007251739501953125,0.009385183453559875,0.019487619400024414,-0.007251739501953125
280,1680362720942,0.0022495798766613007,-0.00180724635720253,0.014056205749511719,0.0022495798766613007,-0.00180724635720253,0.014056205749511719
281,1680362720950,0.016404613852500916,0.010314244776964188,0.006756782531738281,0.016404613852500916,0.010314244776964188,0.006756782531738281
282,1680362720961,-0.005078926682472229,0.012939319014549255,0.011358261108398438,-0.005078926682472229,0.012939319014549255,0.011358261108398438
283,1680362720971,0.009070482105016708,0.010921325534582138,-0.009999275207519531,0.009070482105016708,0.010921325534582138,-0.009999275207519531
284,1680362720980,0.004408238455653191,0.025074373930692673,-0.005135536193847656,0.004408238455653191,0.025074373930692673,-0.005135536193847656
285,1680362720990,0.011572791263461113,0.05086809769272804,0.0043735504150390625,0.011572791263461113,0.05086809769272804,0.0043735504150390625
286,1680362720999,-0.00019827298820018768,0.012701932340860367,0.013709068298339844,-0.00019827298820018768,0.012701932340860367,0.013709068298339844
287,1680362721007,-0.007285276427865028,0.029294349253177643,0.011126518249511719,-0.007285276427865028,0.029294349253177643,0.011126518249511719
288,1680362721019,-0.0022815316915512085,0.026666957885026932,-0.0008211135864257812,-0.0022815316915512085,0.026666957885026932,-0.0008211135864257812
289,1680362721028,0.01688540354371071,0.017143622040748596,-0.0055179595947265625,0.01688540354371071,0.017143622040748596,-0.0055179595947265625
290,1680362721038,0.004914021119475365,0.0031799711287021637,0.018102645874023438,0.004914021119475365,0.0031799711287021637,0.018102645874023438
291,1680362721047,0.021380357444286346,0.0034548528492450714,0.010750770568847656,0.021380357444286346,0.0034548528492450714,0.010750770568847656
292,1680362721057,0.002379337325692177,0.011003062129020691,-0.005900382995605469,0.002379337325692177,0.011003062129020691,-0.005900382995605469
293,1680362721066,0.00488073006272316,0.013165812939405441,0.0059604644775390625,0.00488073006272316,0.013165812939405441,0.0059604644775390625
294,1680362721077,0.007228648290038109,0.010807238519191742,0.008217811584472656,0.007228648290038109,0.010807238519191742,0.008217811584472656
295,1680362721086,-0.011648884043097496,0.02743097022175789,-0.003681182861328125,-0.011648884043097496,0.02743097022175789,-0.003681182861328125
296,1680362721095,-0.013737741857767105,0.0057926177978515625,-0.0012645721435546875,-0.013737741857767105,0.0057926177978515625,-0.0012645721435546875
297,1680362721104,0.000683758407831192,0.02248387038707733,-0.010649681091308594,0.000683758407831192,0.02248387038707733,-0.010649681091308594
298,1680362721114,0.0031022410839796066,0.006203174591064453,0.0059909820556640625,0.0031022410839796066,0.006203174591064453,0.0059909820556640625
299,1680362721124,-0.008751165121793747,0.022776521742343903,0.0011959075927734375,-0.008751165121793747,0.022776521742343903,0.0011959075927734375
300,1680362721134,0.015107642859220505,-0.002932131290435791,0.0035343170166015625,0.015107642859220505,-0.002932131290435791,0.0035343170166015625
301,1680362721143,-0.0014343522489070892,0.023439083248376846,-0.012997627258300781,-0.0014343522489070892,0.023439083248376846,-0.012997627258300781
302,1680362721153,0.001018822193145752,0.01621287316083908,0.01779937744140625,0.001018822193145752,0.01621287316083908,0.01779937744140625
303,1680362721163,0.01048298180103302,-0.005124811083078384,-0.0036687850952148438,0.01048298180103302,-0.005124811083078384,-0.0036687850952148438
304,1680362721172,0.015093863010406494,0.03482722491025925,-0.02008342742919922,0.015093863010406494,0.03482722491025925,-0.02008342742919922
305,1680362721182,0.017271559685468674,0.01329200342297554,-0.0056285858154296875,0.017271559685468674,0.01329200342297554,-0.0056285858154296875
306,1680362721191,0.017057640478014946,0.01541687548160553,-0.0031795501708984375,0.017057640478014946,0.01541687548160553,-0.0031795501708984375
307,1680362721201,0.01460418663918972,0.010665342211723328,-0.0101776123046875,0.01460418663918972,0.010665342211723328,-0.0101776123046875
308,1680362721211,-0.004269495606422424,0.01552686095237732,0.00411224365234375,-0.004269495606422424,0.01552686095237732,0.00411224365234375
309,1680362721221,-0.0017840825021266937,0.00394584983587265,0.00638580322265625,-0.0017840825021266937,0.00394584983587265,0.00638580322265625
310,1680362721230,0.014906497672200203,0.008920405060052872,-0.0054836273193359375,0.014906497672200203,0.008920405060052872,-0.0054836273193359375
311,1680362721239,-0.0299663245677948,0.039791010320186615,-0.005390167236328125,-0.0299663245677948,0.039791010320186615,-0.005390167236328125
312,1680362721249,-0.00822138786315918,0.06533971428871155,-0.012350082397460938,-0.00822138786315918,0.06533971428871155,-0.012350082397460938
313,1680362721259,0.006108162924647331,0.03847183287143707,0.016094207763671875,0.006108162924647331,0.03847183287143707,0.016094207763671875
314,1680362721268,-0.06429141759872437,0.016538746654987335,-0.01241302490234375,-0.06429141759872437,0.016538746654987335,-0.01241302490234375
315,1680362721278,-0.06526326388120651,0.02094990760087967,0.0019121170043945312,-0.06526326388120651,0.02094990760087967,0.0019121170043945312
316,1680362721288,-0.012224193662405014,0.0020016320049762726,0.03481578826904297,-0.012224193662405014,0.0020016320049762726,0.03481578826904297
317,1680362721297,0.04227220267057419,0.011592820286750793,0.00835418701171875,0.04227220267057419,0.011592820286750793,0.00835418701171875
318,1680362721307,0.05106378719210625,0.03301079198718071,0.00821685791015625,0.05106378719210625,0.03301079198718071,0.00821685791015625
319,1680362721316,0.04321892932057381,0.018908310681581497,-0.010732650756835938,0.04321892932057381,0.018908310681581497,-0.010732650756835938
320,1680362721326,0.05444742739200592,0.019146572798490524,0.0012121200561523438,0.05444742739200592,0.019146572798490524,0.0012121200561523438
321,1680362721335,0.04196176677942276,0.012201379984617233,-0.008229255676269531,0.04196176677942276,0.012201379984617233,-0.008229255676269531
322,1680362721345,-0.0031370259821414948,0.0026946477591991425,-0.012788772583007812,-0.0031370259821414948,0.0026946477591991425,-0.012788772583007812
323,1680362721355,-0.012433629482984543,-0.001621529459953308,-0.0008106231689453125,-0.012433629482984543,-0.001621529459953308,-0.0008106231689453125
324,1680362721365,-0.0027294252067804337,-0.0037334151566028595,-0.010204315185546875,-0.0027294252067804337,-0.0037334151566028595,-0.010204315185546875
325,1680362721374,0.013850780203938484,-0.0033417753875255585,0.004086494445800781,0.013850780203938484,-0.0033417753875255585,0.004086494445800781
326,1680362721384,-0.007588814944028854,0.025392737239599228,0.0016651153564453125,-0.007588814944028854,0.025392737239599228,0.0016651153564453125
327,1680362721393,0.018606936559081078,0.04860096052289009,-0.0007181167602539062,0.018606936559081078,0.04860096052289009,-0.0007181167602539062
328,1680362721403,0.03729776665568352,0.04095468297600746,-0.0007047653198242188,0.03729776665568352,0.04095468297600746,-0.0007047653198242188
329,1680362721413,0.0321662612259388,0.04742863401770592,-0.0006933212280273438,0.0321662612259388,0.04742863401770592,-0.0006933212280273438
330,1680362721422,0.0034650396555662155,0.020745858550071716,-0.0030374526977539062,0.0034650396555662155,0.020745858550071716,-0.0030374526977539062
331,1680362721432,0.00123688206076622,-0.01231846958398819,0.004080772399902344,0.00123688206076622,-0.01231846958398819,0.004080772399902344
332,1680362721441,0.008468670770525932,-0.0022643543779850006,-0.0148162841796875,0.008468670770525932,-0.0022643543779850006,-0.0148162841796875
333,1680362721451,-0.0033626705408096313,-0.0091748908162117,-0.005161285400390625,-0.0033626705408096313,-0.0091748908162117,-0.005161285400390625
334,1680362721461,0.03463788330554962,-0.013629220426082611,-0.0074310302734375,0.03463788330554962,-0.013629220426082611,-0.0074310302734375
335,1680362721470,0.022370388731360435,0.01729588955640793,0.006812095642089844,0.022370388731360435,0.01729588955640793,0.006812095642089844
336,1680362721480,0.02676749788224697,0.026744328439235687,-0.0027074813842773438,0.02676749788224697,0.026744328439235687,-0.0027074813842773438
337,1680362721489,0.026507284492254257,0.038166265934705734,0.0020494461059570312,0.026507284492254257,0.038166265934705734,0.0020494461059570312
338,1680362721499,0.007435198873281479,0.04692839831113815,-0.009749412536621094,0.007435198873281479,0.04692839831113815,-0.009749412536621094
339,1680362721508,-0.006621444597840309,0.024965621531009674,-0.007246971130371094,-0.006621444597840309,0.024965621531009674,-0.007246971130371094
340,1680362721518,-0.03927561640739441,0.001238349825143814,0.0069942474365234375,-0.03927561640739441,0.001238349825143814,0.0069942474365234375
341,1680362721528,-0.007841607555747032,-0.019737355411052704,0.006878852844238281,-0.007841607555747032,-0.019737355411052704,0.006878852844238281
342,1680362721537,-0.012237628921866417,-0.0002644285559654236,0.0020685195922851562,-0.012237628921866417,-0.0002644285559654236,0.0020685195922851562
343,1680362721547,0.02804095670580864,-0.0001564621925354004,-0.0026769638061523438,0.02804095670580864,-0.0001564621925354004,-0.0026769638061523438
344,1680362721556,0.02295074611902237,0.00958283618092537,0.02089691162109375,0.02295074611902237,0.00958283618092537,0.02089691162109375
345,1680362721566,0.04392487183213234,-0.002349965274333954,0.01585102081298828,0.04392487183213234,-0.002349965274333954,0.01585102081298828
346,1680362721576,0.03631220757961273,0.026256810873746872,-0.012650489807128906,0.03631220757961273,0.026256810873746872,-0.012650489807128906
347,1680362721585,0.02167634107172489,0.009560827165842056,0.008732795715332031,0.02167634107172489,0.009560827165842056,0.008732795715332031
348,1680362721595,-0.006738645955920219,0.009729068726301193,-0.00553131103515625,-0.006738645955920219,0.009729068726301193,-0.00553131103515625
349,1680362721605,-0.009020252153277397,-0.011162836104631424,0.008683204650878906,-0.009020252153277397,-0.011162836104631424,0.008683204650878906
350,1680362721614,-0.022803178057074547,0.005714260041713715,0.010894775390625,-0.022803178057074547,0.005714260041713715,0.010894775390625
351,1680362721623,-0.015282461419701576,-0.0013439171016216278,0.010713577270507812,-0.015282461419701576,-0.0013439171016216278,0.010713577270507812
352,1680362721633,0.003973793238401413,0.008091680705547333,0.0011262893676757812,0.003973793238401413,0.008091680705547333,0.0011262893676757812
353,1680362721643,0.025263596326112747,0.026876002550125122,-0.015367507934570312,0.025263596326112747,0.026876002550125122,-0.015367507934570312
354,1680362721652,0.013264326378703117,0.019704606384038925,0.010772705078125,0.013264326378703117,0.019704606384038925,0.010772705078125
355,1680362721662,0.010760871693491936,0.02899986132979393,-0.0011692047119140625,0.010760871693491936,0.02899986132979393,-0.0011692047119140625
356,1680362721672,0.008313754573464394,0.0027377046644687653,-0.003505706787109375,0.008313754573464394,0.0027377046644687653,-0.003505706787109375
357,1680362721682,-0.0036277640610933304,0.00044026970863342285,-0.04580402374267578,-0.0036277640610933304,0.00044026970863342285,-0.04580402374267578
358,1680362721691,0.0013144202530384064,0.005360178649425507,0.03732013702392578,0.0013144202530384064,0.005360178649425507,0.03732013702392578
359,1680362721700,0.015373028814792633,0.000887308269739151,-0.019777297973632812,0.015373028814792633,0.000887308269739151,-0.019777297973632812
360,1680362721710,0.012834032997488976,0.03604219853878021,-0.03121185302734375,0.012834032997488976,0.03604219853878021,-0.03121185302734375
361,1680362721720,0.02692585438489914,0.030849523842334747,0.02342987060546875,0.02692585438489914,0.030849523842334747,0.02342987060546875
362,1680362721729,0.019723864272236824,0.023372698575258255,0.018327713012695312,0.019723864272236824,0.023372698575258255,0.018327713012695312
363,1680362721739,0.019469033926725388,0.04191788658499718,-0.029031753540039062,0.019469033926725388,0.04191788658499718,-0.029031753540039062
364,1680362721749,0.00038805603981018066,0.03448132425546646,0.02793121337890625,0.00038805603981018066,0.03448132425546646,0.02793121337890625
365,1680362721758,-0.03247993811964989,0.010483462363481522,0.02039813995361328,-0.03247993811964989,0.010483462363481522,0.02039813995361328
366,1680362721766,-0.005983185023069382,0.02217581495642662,-0.02699565887451172,-0.005983185023069382,0.02217581495642662,-0.02699565887451172
367,1680362721776,-0.01065099611878395,0.012270618230104446,-0.012427330017089844,-0.01065099611878395,0.012270618230104446,-0.012427330017089844
368,1680362721785,-0.017581529915332794,0.002530917525291443,0.02071380615234375,-0.017581529915332794,0.002530917525291443,0.02071380615234375
369,1680362721796,0.00853808969259262,0.007057342678308487,-0.019634246826171875,0.00853808969259262,0.007057342678308487,-0.019634246826171875
370,1680362721804,0.027155453339219093,0.006698925048112869,-0.014596939086914062,0.027155453339219093,0.006698925048112869,-0.014596939086914062
371,1680362721814,0.017350712791085243,0.01588202267885208,0.006816864013671875,0.017350712791085243,0.01588202267885208,0.006816864013671875
372,1680362721823,0.031236406415700912,0.029705826193094254,-0.016823768615722656,0.031236406415700912,0.029705826193094254,-0.016823768615722656
373,1680362721834,0.02370475046336651,0.007912036031484604,0.004642486572265625,0.02370475046336651,0.007912036031484604,0.004642486572265625
374,1680362721842,-0.005081681534647942,-0.0017551407217979431,0.013973236083984375,-0.005081681534647942,-0.0017551407217979431,0.013973236083984375
375,1680362721852,-0.00976433977484703,-0.001966681331396103,-0.002735137939453125,-0.00976433977484703,-0.001966681331396103,-0.002735137939453125
376,1680362721862,-0.018952617421746254,0.004990696907043457,-0.00974273681640625,-0.018952617421746254,0.004990696907043457,-0.00974273681640625
377,1680362721871,-0.018692316487431526,8.361414074897766e-05,0.0045375823974609375,-0.018692316487431526,8.361414074897766e-05,0.0045375823974609375
378,1680362721880,-0.004205506294965744,0.025949567556381226,-0.00731658935546875,-0.004205506294965744,0.025949567556381226,-0.00731658935546875
379,1680362721890,0.014848798513412476,0.018322180956602097,-0.007195472717285156,0.014848798513412476,0.018322180956602097,-0.007195472717285156
380,1680362721900,0.017012527212500572,0.01319275051355362,0.016465187072753906,0.017012527212500572,0.01319275051355362,0.016465187072753906
381,1680362721909,0.01667230762541294,0.024833038449287415,-0.01204681396484375,0.01667230762541294,0.024833038449287415,-0.01204681396484375
382,1680362721919,0.009158836677670479,0.008041184395551682,-8.20159912109375e-05,0.009158836677670479,0.008041184395551682,-8.20159912109375e-05
383,1680362721929,0.013773109763860703,-0.006339717656373978,0.009325981140136719,0.013773109763860703,-0.006339717656373978,0.009325981140136719
384,1680362721938,-0.0005194190889596939,-0.0014257058501243591,-0.007304191589355469,-0.0005194190889596939,-0.0014257058501243591,-0.007304191589355469
385,1680362721948,0.004032688215374947,-0.010840125381946564,-0.009523391723632812,0.004032688215374947,-0.010840125381946564,-0.009523391723632812
386,1680362721957,-0.007741263136267662,-0.0012517757713794708,4.291534423828125e-05,-0.007741263136267662,-0.0012517757713794708,4.291534423828125e-05
387,1680362721967,0.0063384827226400375,0.010404814034700394,-0.02584075927734375,0.0063384827226400375,0.010404814034700394,-0.02584075927734375
388,1680362721976,0.008629592135548592,0.026450540870428085,-0.01835918426513672,0.008629592135548592,0.026450540870428085,-0.01835918426513672
389,1680362721986,0.006088944151997566,0.018942177295684814,-0.003933906555175781,0.006088944151997566,0.018942177295684814,-0.003933906555175781
390,1680362721996,-0.0011355914175510406,0.02107880264520645,0.00789642333984375,-0.0011355914175510406,0.02107880264520645,0.00789642333984375
391,1680362722005,-0.008224377408623695,0.03471922501921654,-0.013406753540039062,-0.008224377408623695,0.03471922501921654,-0.013406753540039062
392,1680362722015,-0.02215028926730156,0.008354783058166504,0.012699127197265625,-0.02215028926730156,0.008354783058166504,0.012699127197265625
393,1680362722025,-0.024193285033106804,0.0034884661436080933,-0.003987312316894531,-0.024193285033106804,0.0034884661436080933,-0.003987312316894531
394,1680362722034,0.004392234608530998,-0.003974255174398422,-0.006278038024902344,0.004392234608530998,-0.003974255174398422,-0.006278038024902344
395,1680362722044,0.016138074919581413,-0.0063913799822330475,-0.008515357971191406,0.016138074919581413,-0.0063913799822330475,-0.008515357971191406
396,1680362722057,0.022752735763788223,0.003219880163669586,-0.013083457946777344,0.022752735763788223,0.003219880163669586,-0.013083457946777344
397,1680362722064,0.029384508728981018,-0.008725058287382126,0.008305549621582031,0.029384508728981018,-0.008725058287382126,0.008305549621582031
398,1680362722073,0.0170753113925457,0.00529881939291954,0.005825042724609375,0.0170753113925457,0.00529881939291954,0.005825042724609375
399,1680362722083,0.012023193761706352,0.012359540909528732,-0.006049156188964844,0.012023193761706352,0.012359540909528732,-0.006049156188964844
400,1680362722314,0.003322819247841835,-0.0019185282289981842,0.0067768096923828125,0.003322819247841835,-0.0019185282289981842,0.0067768096923828125
401,1680362722329,0.005552487447857857,0.005277805030345917,-0.002758026123046875,0.005552487447857857,0.005277805030345917,-0.002758026123046875
402,1680362722332,-0.0062475260347127914,0.012114599347114563,0.0019979476928710938,-0.0062475260347127914,0.012114599347114563,0.0019979476928710938
403,1680362722343,-0.0013757776468992233,-0.00950012356042862,0.004319190979003906,-0.0013757776468992233,-0.00950012356042862,0.004319190979003906
404,1680362722353,-0.0037642065435647964,-0.002192433923482895,-0.002819061279296875,-0.0037642065435647964,-0.002192433923482895,-0.002819061279296875
405,1680362722363,-0.0154084712266922,0.004896175116300583,-0.0027723312377929688,-0.0154084712266922,0.004896175116300583,-0.0027723312377929688
406,1680362722372,-0.010495912283658981,-2.4266541004180908e-05,-0.007422447204589844,-0.010495912283658981,-2.4266541004180908e-05,-0.007422447204589844
407,1680362722382,-0.00579250231385231,0.0024284571409225464,-0.0049571990966796875,-0.00579250231385231,0.0024284571409225464,-0.0049571990966796875
408,1680362722391,-0.0009283404797315598,0.009198598563671112,-0.007216453552246094,-0.0009283404797315598,0.009198598563671112,-0.007216453552246094
409,1680362722402,0.008551152423024178,0.011273246258497238,-4.482269287109375e-05,0.008551152423024178,0.011273246258497238,-4.482269287109375e-05
410,1680362722411,0.0010766293853521347,-0.005165960639715195,0.014077186584472656,0.0010766293853521347,-0.005165960639715195,0.014077186584472656
411,1680362722420,0.010409895330667496,0.004312202334403992,-0.014395713806152344,0.010409895330667496,0.004312202334403992,-0.014395713806152344
412,1680362722430,0.014891859143972397,-0.016849372535943985,-0.009443283081054688,0.014891859143972397,-0.016849372535943985,-0.009443283081054688
413,1680362722440,0.017167434096336365,-0.011872891336679459,0.018951416015625,0.017167434096336365,-0.011872891336679459,0.018951416015625
414,1680362722449,-0.006829168647527695,0.005233835428953171,-0.004904747009277344,-0.006829168647527695,0.005233835428953171,-0.004904747009277344
415,1680362722459,-0.0021718647330999374,0.007486943155527115,-0.004822731018066406,-0.0021718647330999374,0.007486943155527115,-0.004822731018066406
416,1680362722468,-0.004547489807009697,0.011817075312137604,-0.0117950439453125,-0.004547489807009697,0.011817075312137604,-0.0117950439453125
417,1680362722478,-0.004527639597654343,0.025835949927568436,-0.006886482238769531,-0.004527639597654343,0.025835949927568436,-0.006886482238769531
418,1680362722488,0.005011839792132378,0.01149538904428482,-0.004429817199707031,0.005011839792132378,0.01149538904428482,-0.004429817199707031
419,1680362722497,0.002419162541627884,0.009269673377275467,0.00035762786865234375,0.002419162541627884,0.009269673377275467,0.00035762786865234375
420,1680362722507,-0.004632230848073959,0.006533771753311157,0.005062103271484375,-0.004632230848073959,0.006533771753311157,0.005062103271484375
421,1680362722516,-0.00461161695420742,0.0016977153718471527,0.009674072265625,-0.00461161695420742,0.0016977153718471527,0.009674072265625
422,1680362722527,0.00941653735935688,-0.009997475892305374,-0.009302139282226562,0.00941653735935688,-0.009997475892305374,-0.009302139282226562
423,1680362722536,-0.0024477019906044006,-0.0026818253099918365,-0.0020952224731445312,-0.0024477019906044006,-0.0026818253099918365,-0.0020952224731445312
424,1680362722545,0.004701409488916397,-0.007348939776420593,-0.004416465759277344,0.004701409488916397,-0.007348939776420593,-0.004416465759277344
425,1680362722555,-0.004953678697347641,-0.009260926395654678,0.005082130432128906,-0.004953678697347641,-0.009260926395654678,0.005082130432128906
426,1680362722565,0.01625908352434635,0.00017348676919937134,0.014405250549316406,0.01625908352434635,0.00017348676919937134,0.014405250549316406
427,1680362722574,0.018385300412774086,0.00026755034923553467,-0.004665374755859375,0.018385300412774086,0.00026755034923553467,-0.004665374755859375
428,1680362722584,0.025089869275689125,-0.01140349730849266,-0.0022306442260742188,0.025089869275689125,-0.01140349730849266,-0.0022306442260742188
429,1680362722593,0.0012002363801002502,0.005469705909490585,-0.009244918823242188,0.0012002363801002502,0.005469705909490585,-0.009244918823242188
430,1680362722603,-0.0013439171016216278,0.003344424068927765,-0.013800621032714844,-0.0013439171016216278,0.003344424068927765,-0.013800621032714844
431,1680362722613,-0.01067311316728592,0.010325375944375992,-0.0112152099609375,-0.01067311316728592,0.010325375944375992,-0.0112152099609375
432,1680362722622,0.0059087444096803665,0.019335400313138962,-0.013384819030761719,0.0059087444096803665,0.019335400313138962,-0.013384819030761719
433,1680362722632,0.0010577496141195297,0.0024104975163936615,-0.010806083679199219,0.0010577496141195297,0.0024104975163936615,-0.010806083679199219
434,1680362722641,0.01050301268696785,-0.006829623132944107,0.0011386871337890625,0.01050301268696785,-0.006829623132944107,0.0011386871337890625
435,1680362722651,0.0034293830394744873,0.0052569471299648285,-0.0012359619140625,0.0034293830394744873,0.0052569471299648285,-0.0012359619140625
436,1680362722661,0.0034284349530935287,0.014674052596092224,-0.005911827087402344,0.0034284349530935287,0.014674052596092224,-0.005911827087402344
437,1680362722670,-0.0035128165036439896,0.0048943571746349335,-0.0034732818603515625,-0.0035128165036439896,0.0048943571746349335,-0.0034732818603515625
438,1680362722680,0.015319757163524628,-0.023441404104232788,0.01070404052734375,0.015319757163524628,-0.023441404104232788,0.01070404052734375
439,1680362722690,0.012652792036533356,0.0030405744910240173,-0.010644912719726562,0.012652792036533356,0.0030405744910240173,-0.010644912719726562
440,1680362722699,0.0008463934063911438,-0.0015129409730434418,-0.008111953735351562,0.0008463934063911438,-0.0015129409730434418,-0.008111953735351562
441,1680362722709,-0.006403250619769096,0.001077204942703247,0.0037889480590820312,-0.006403250619769096,0.001077204942703247,0.0037889480590820312
442,1680362722718,-0.02035953290760517,-0.0010872222483158112,0.003726959228515625,-0.02035953290760517,-0.0010872222483158112,0.003726959228515625
443,1680362722728,-0.012896409258246422,0.017858777195215225,-0.0010461807250976562,-0.012896409258246422,0.017858777195215225,-0.0010461807250976562
444,1680362722737,-0.003329116851091385,0.015414338558912277,0.020158767700195312,-0.003329116851091385,0.015414338558912277,0.020158767700195312
445,1680362722747,0.001493982970714569,0.017722371965646744,-0.006058692932128906,0.001493982970714569,0.017722371965646744,-0.006058692932128906
446,1680362722757,-0.012705761939287186,0.01303749531507492,-0.008311271667480469,-0.012705761939287186,0.01303749531507492,-0.008311271667480469
447,1680362722766,-0.0007869116961956024,0.007996127009391785,0.0035905838012695312,-0.0007869116961956024,0.007996127009391785,0.0035905838012695312
448,1680362722776,0.02740802802145481,-0.013676188886165619,0.017648696899414062,0.02740802802145481,-0.013676188886165619,0.017648696899414062
449,1680362722785,-0.003810802474617958,-0.011219874024391174,-0.0038318634033203125,-0.003810802474617958,-0.011219874024391174,-0.0038318634033203125
450,1680362722795,0.0009080041199922562,-0.0062245577573776245,-0.00141143798828125,0.0009080041199922562,-0.0062245577573776245,-0.00141143798828125
451,1680362722804,-0.008697841316461563,0.012791402637958527,-0.003742218017578125,-0.008697841316461563,0.012791402637958527,-0.003742218017578125
452,1680362722815,0.015044867992401123,0.012450121343135834,-0.015444755554199219,0.015044867992401123,0.012450121343135834,-0.015444755554199219
453,1680362722823,0.0006184913218021393,0.02185862883925438,0.005999565124511719,0.0006184913218021393,0.02185862883925438,0.005999565124511719
454,1680362722833,-0.011211438104510307,0.009489357471466064,-0.0035238265991210938,-0.011211438104510307,0.009489357471466064,-0.0035238265991210938
455,1680362722843,-0.00873953104019165,0.004507426172494888,0.008313179016113281,-0.00873953104019165,0.004507426172494888,0.008313179016113281
456,1680362722852,0.010292774066329002,-0.0048788972198963165,-0.005944252014160156,0.010292774066329002,-0.0048788972198963165,-0.005944252014160156
457,1680362722862,0.002998005598783493,-0.014123480767011642,0.0012083053588867188,0.002998005598783493,-0.014123480767011642,0.0012083053588867188
458,1680362722872,-0.004160657525062561,-0.006949074566364288,-0.0035228729248046875,-0.004160657525062561,-0.006949074566364288,-0.0035228729248046875
459,1680362722881,-0.01131131686270237,0.014097373932600021,0.008313179016113281,-0.01131131686270237,0.014097373932600021,0.008313179016113281
460,1680362722891,0.009992867708206177,0.0018578097224235535,-0.0059452056884765625,0.009992867708206177,0.0018578097224235535,-0.0059452056884765625
461,1680362722900,0.005058508366346359,0.004054859280586243,0.012969970703125,0.005058508366346359,0.004054859280586243,0.012969970703125
462,1680362722910,0.021393459290266037,-0.005323253571987152,-0.006060600280761719,0.021393459290266037,-0.005323253571987152,-0.006060600280761719
463,1680362722919,0.011798083782196045,-0.000779222697019577,-0.015384674072265625,0.011798083782196045,-0.000779222697019577,-0.015384674072265625
464,1680362722929,-0.018936648964881897,0.0016860701143741608,0.008413314819335938,-0.018936648964881897,0.0016860701143741608,0.008413314819335938
465,1680362722939,0.009561728686094284,0.0017552413046360016,-0.0011491775512695312,0.009561728686094284,0.0017552413046360016,-0.0011491775512695312
466,1680362722948,-0.00017287954688072205,-0.00042078644037246704,-0.0034837722778320312,-0.00017287954688072205,-0.00042078644037246704,-0.0034837722778320312
467,1680362722958,-0.023528490215539932,0.0020388439297676086,0.0036411285400390625,-0.023528490215539932,0.0020388439297676086,0.0036411285400390625
468,1680362722968,-0.004265002906322479,0.0043447911739349365,-0.012894630432128906,-0.004265002906322479,0.0043447911739349365,-0.012894630432128906
469,1680362722977,-0.002006586641073227,0.013776421546936035,-0.005611419677734375,-0.002006586641073227,0.013776421546936035,-0.005611419677734375
470,1680362722987,-0.00449727475643158,0.011288020759820938,0.0015354156494140625,-0.00449727475643158,0.011288020759820938,0.0015354156494140625
471,1680362722997,-0.002123020589351654,0.010858841240406036,-0.0032024383544921875,-0.002123020589351654,0.010858841240406036,-0.0032024383544921875
472,1680362723006,0.0025526508688926697,0.006078369915485382,-0.014911651611328125,0.0025526508688926697,0.006078369915485382,-0.014911651611328125
473,1680362723016,-0.0022419504821300507,-0.000880461186170578,0.0018129348754882812,-0.0022419504821300507,-0.000880461186170578,0.0018129348754882812
474,1680362723026,0.009614948183298111,-0.0006572306156158447,-0.0029277801513671875,0.009614948183298111,-0.0006572306156158447,-0.0029277801513671875
475,1680362723035,-0.009319715201854706,0.00874612107872963,-0.007575035095214844,-0.009319715201854706,0.00874612107872963,-0.007575035095214844
476,1680362723045,-0.011449061334133148,0.003776639699935913,0.0019578933715820312,-0.011449061334133148,0.003776639699935913,0.0019578933715820312
477,1680362723054,0.000336378812789917,-0.005485258996486664,-0.007481575012207031,0.000336378812789917,-0.005485258996486664,-0.007481575012207031
478,1680362723064,-0.009148616343736649,0.003772169351577759,0.0067615509033203125,-0.009148616343736649,0.003772169351577759,0.0067615509033203125
479,1680362723073,0.007534798234701157,-0.0012427754700183868,0.0019369125366210938,0.007534798234701157,-0.0012427754700183868,0.0019369125366210938
480,1680362723083,0.0025293901562690735,0.012881740927696228,-0.012213706970214844,0.0025293901562690735,0.012881740927696228,-0.012213706970214844
481,1680362723093,-0.01402924582362175,0.008052174001932144,-0.0002460479736328125,-0.01402924582362175,0.008052174001932144,-0.0002460479736328125
482,1680362723102,-0.004444010555744171,0.012501697987318039,-0.0049381256103515625,-0.004444010555744171,0.012501697987318039,-0.0049381256103515625
483,1680362723112,0.002513740211725235,-0.006537683308124542,-0.007210731506347656,0.002513740211725235,-0.006537683308124542,-0.007210731506347656
484,1680362723121,-0.006991446018218994,0.0030760392546653748,-0.011800765991210938,-0.006991446018218994,0.0030760392546653748,-0.011800765991210938
485,1680362723131,2.3774802684783936e-05,0.0031216703355312347,-0.0021953582763671875,2.3774802684783936e-05,0.0031216703355312347,-0.0021953582763671875
486,1680362723141,-0.00014495477080345154,-0.0014335960149765015,0.0072650909423828125,-0.00014495477080345154,-0.0014335960149765015,0.0072650909423828125
487,1680362723150,-0.0025552622973918915,0.0035101696848869324,-0.011685371398925781,-0.0025552622973918915,0.0035101696848869324,-0.011685371398925781
488,1680362723160,-0.007167883217334747,0.015199773013591766,-0.00208282470703125,-0.007167883217334747,0.015199773013591766,-0.00208282470703125
489,1680362723169,0.0023034587502479553,0.0030556321144104004,0.00030803680419921875,0.0023034587502479553,0.0030556321144104004,0.00030803680419921875
490,1680362723179,0.01632862165570259,-0.00866154208779335,-0.00205230712890625,0.01632862165570259,-0.00866154208779335,-0.00205230712890625
491,1680362723189,0.004237040877342224,-0.001256544142961502,-0.0043582916259765625,0.004237040877342224,-0.001256544142961502,-0.0043582916259765625
492,1680362723198,0.0017547942698001862,-0.00819111242890358,0.00983428955078125,0.0017547942698001862,-0.00819111242890358,0.00983428955078125
493,1680362723208,-0.002914655953645706,-0.0007932893931865692,-0.011514663696289062,-0.002914655953645706,-0.0007932893931865692,-0.011514663696289062
494,1680362723217,0.0042426809668540955,-0.0007950998842716217,0.012204170227050781,0.0042426809668540955,-0.0007950998842716217,0.012204170227050781
495,1680362723227,-0.0006923042237758636,-0.0006852559745311737,0.007305145263671875,-0.0006923042237758636,-0.0006852559745311737,0.007305145263671875
496,1680362723238,-0.010159682482481003,0.013542279601097107,-0.0022382736206054688,-0.010159682482481003,0.013542279601097107,-0.0022382736206054688
497,1680362723246,0.00418487936258316,0.02742043137550354,-0.002201080322265625,0.00418487936258316,0.02742043137550354,-0.002201080322265625
498,1680362723256,-0.0006369203329086304,-0.0008408166468143463,-0.0045032501220703125,-0.0006369203329086304,-0.0008408166468143463,-0.0045032501220703125
499,1680362723265,0.0017705895006656647,0.01787610724568367,-0.0020885467529296875,0.0017705895006656647,0.01787610724568367,-0.0020885467529296875
500,1680362723275,0.006284613162279129,-0.0037354491651058197,0.00030231475830078125,0.006284613162279129,-0.0037354491651058197,0.00030231475830078125
501,1680362723284,0.008367612957954407,-0.012983724474906921,0.014417648315429688,0.008367612957954407,-0.012983724474906921,0.014417648315429688
502,1680362723294,0.008059810847043991,-0.01053931936621666,-0.0022974014282226562,0.008059810847043991,-0.01053931936621666,-0.0022974014282226562
503,1680362723304,-0.00849323719739914,0.0012721344828605652,0.0024509429931640625,-0.00849323719739914,0.0012721344828605652,0.0024509429931640625
504,1680362723313,-0.0013406798243522644,0.012886732816696167,-0.0023012161254882812,-0.0013406798243522644,0.012886732816696167,-0.0023012161254882812
505,1680362723323,-0.0037295185029506683,-0.0011263862252235413,-0.004601478576660156,-0.0037295185029506683,-0.0011263862252235413,-0.004601478576660156
506,1680362723332,-0.008322112262248993,0.006056774407625198,-0.006880760192871094,-0.008322112262248993,0.006056774407625198,-0.006880760192871094
507,1680362723342,-0.00823933631181717,0.008055880665779114,0.0026407241821289062,-0.00823933631181717,0.008055880665779114,0.0026407241821289062
508,1680362723350,-0.017453622072935104,0.007793910801410675,-0.006812095642089844,-0.017453622072935104,0.007793910801410675,-0.006812095642089844
509,1680362723362,-0.017106086015701294,0.0100046806037426,-0.0020017623901367188,-0.017106086015701294,0.0100046806037426,-0.0020017623901367188
510,1680362723371,-0.00029005110263824463,-0.0019409283995628357,-0.009020805358886719,-0.00029005110263824463,-0.0019409283995628357,-0.009020805358886719
511,1680362723381,-0.00022902339696884155,-0.006846390664577484,-0.0041599273681640625,-0.00022902339696884155,-0.006846390664577484,-0.0041599273681640625
512,1680362723391,-0.004881046712398529,0.018894419074058533,-0.015854835510253906,-0.004881046712398529,0.018894419074058533,-0.015854835510253906
513,1680362723398,-0.004631206393241882,0.006912894546985626,0.0008697509765625,-0.004631206393241882,0.006912894546985626,0.0008697509765625
514,1680362723409,0.011864788830280304,-0.0072096362709999084,0.0055675506591796875,0.011864788830280304,-0.0072096362709999084,0.0055675506591796875
515,1680362723419,-0.00486379861831665,0.02347429096698761,-0.00864410400390625,-0.00486379861831665,0.02347429096698761,-0.00864410400390625
516,1680362723428,0.006925102323293686,-0.014578215777873993,-0.0014476776123046875,0.006925102323293686,-0.014578215777873993,-0.0014476776123046875
517,1680362723438,-0.0002983473241329193,0.00917641818523407,-0.010830879211425781,-0.0002983473241329193,0.00917641818523407,-0.010830879211425781
518,1680362723448,-0.009659994393587112,-0.007339540868997574,0.015232086181640625,-0.009659994393587112,-0.007339540868997574,0.015232086181640625
519,1680362723457,-0.004731394350528717,0.013938695192337036,-0.008548736572265625,-0.004731394350528717,0.013938695192337036,-0.008548736572265625
520,1680362723468,-0.0022408217191696167,-0.007816102355718613,0.022186279296875,-0.0022408217191696167,-0.007816102355718613,0.022186279296875
521,1680362723477,-0.002147279679775238,0.004062272608280182,-0.0064220428466796875,-0.002147279679775238,0.004062272608280182,-0.0064220428466796875
522,1680362723486,0.007239945232868195,0.00643148273229599,-0.013381004333496094,0.007239945232868195,0.00643148273229599,-0.013381004333496094
523,1680362723495,-0.013883549720048904,0.013150002807378769,0.003314971923828125,-0.013883549720048904,0.013150002807378769,0.003314971923828125
524,1680362723505,0.0123986154794693,-0.0010918490588665009,-0.006148338317871094,0.0123986154794693,-0.0010918490588665009,-0.006148338317871094
525,1680362723513,0.0005964115262031555,0.020194247364997864,0.0010061264038085938,0.0005964115262031555,0.020194247364997864,0.0010061264038085938
526,1680362723524,0.007807061076164246,-0.012980256229639053,0.0057010650634765625,0.007807061076164246,-0.012980256229639053,0.0057010650634765625
527,1680362723533,0.010312965139746666,-0.010423220694065094,-0.0061588287353515625,0.010312965139746666,-0.010423220694065094,-0.0061588287353515625
528,1680362723542,-0.008633783087134361,0.020201560109853745,-0.01546478271484375,-0.008633783087134361,0.020201560109853745,-0.01546478271484375
529,1680362723553,-0.010998981073498726,0.01055394858121872,-0.00579833984375,-0.010998981073498726,0.01055394858121872,-0.00579833984375
530,1680362723563,0.008167890831828117,0.01002689078450203,-0.015110969543457031,0.008167890831828117,0.01002689078450203,-0.015110969543457031
531,1680362723572,-0.017682913690805435,0.004906628280878067,0.006310462951660156,-0.017682913690805435,0.004906628280878067,0.006310462951660156
532,1680362723582,0.008550107479095459,8.083879947662354e-07,0.0085601806640625,0.008550107479095459,8.083879947662354e-07,0.0085601806640625
533,1680362723589,0.003415515646338463,0.004569500684738159,-0.0033464431762695312,0.003415515646338463,0.004569500684738159,-0.0033464431762695312
534,1680362723603,0.015192870050668716,-0.011982332915067673,-0.010357856750488281,0.015192870050668716,-0.011982332915067673,-0.010357856750488281
535,1680362723609,0.010172735899686813,-0.011797629296779633,-0.012540817260742188,0.010172735899686813,-0.011797629296779633,-0.012540817260742188
536,1680362723620,0.005123399198055267,0.00261509045958519,-0.0029077529907226562,0.005123399198055267,0.00261509045958519,-0.0029077529907226562
537,1680362723631,-0.008913692086935043,-0.0067550987005233765,0.01595592498779297,-0.008913692086935043,-0.0067550987005233765,0.01595592498779297
538,1680362723638,-0.0016422644257545471,-0.001834586262702942,-0.005481719970703125,-0.0016422644257545471,-0.001834586262702942,-0.005481719970703125
539,1680362723648,-0.008625814691185951,0.00042400136590003967,0.00872802734375,-0.008625814691185951,0.00042400136590003967,0.00872802734375
540,1680362723658,0.012647919356822968,-0.006777822971343994,0.0015153884887695312,0.012647919356822968,-0.006777822971343994,0.0015153884887695312
541,1680362723668,0.0006175078451633453,0.007551237940788269,0.008558273315429688,0.0006175078451633453,0.007551237940788269,0.008558273315429688
542,1680362723681,0.00066322460770607,0.007410027086734772,-0.012770652770996094,0.00066322460770607,0.007410027086734772,-0.012770652770996094
543,1680362723687,-0.004114922136068344,0.019034985452890396,-0.0125579833984375,-0.004114922136068344,0.019034985452890396,-0.0125579833984375
544,1680362723696,0.005305364727973938,0.009406808763742447,-0.012348175048828125,0.005305364727973938,0.009406808763742447,-0.012348175048828125
545,1680362723706,-0.011299308389425278,0.006766676902770996,0.0019769668579101562,-0.011299308389425278,0.006766676902770996,0.0019769668579101562
546,1680362723715,0.005292821675539017,0.01146218553185463,-0.009818077087402344,0.005292821675539017,0.01146218553185463,-0.009818077087402344
547,1680362723726,-0.0017919056117534637,-0.002863779664039612,-0.0025873184204101562,-0.0017919056117534637,-0.002863779664039612,-0.0025873184204101562
548,1680362723734,-0.0018181391060352325,-0.005187157541513443,-0.00725555419921875,-0.0018181391060352325,-0.005187157541513443,-0.00725555419921875
549,1680362723743,0.009919334203004837,-0.005004499107599258,-0.011844635009765625,0.009919334203004837,-0.005004499107599258,-0.011844635009765625
550,1680362723753,-0.0020660124719142914,-0.0024688802659511566,0.004828453063964844,-0.0020660124719142914,-0.0024688802659511566,0.004828453063964844
551,1680362723766,0.0026084817945957184,0.002603720873594284,0.014156341552734375,0.0026084817945957184,0.002603720873594284,0.014156341552734375
552,1680362723774,-0.002187918871641159,-0.0023928172886371613,-0.00254058837890625,-0.002187918871641159,-0.0023928172886371613,-0.00254058837890625
553,1680362723783,-0.006918955594301224,-0.00663062185049057,-0.00015544891357421875,-0.006918955594301224,-0.00663062185049057,-0.00015544891357421875
554,1680362723794,0.012194477021694183,-0.013364087790250778,0.018677711486816406,0.012194477021694183,-0.013364087790250778,0.018677711486816406
555,1680362723802,-0.009251181036233902,0.012838248163461685,0.0042476654052734375,-0.009251181036233902,0.012838248163461685,0.0042476654052734375
556,1680362723812,-0.01631695032119751,-0.006221693009138107,0.013586044311523438,-0.01631695032119751,-0.006221693009138107,0.013586044311523438
557,1680362723822,-0.006581008434295654,0.012921791523694992,0.0015974044799804688,-0.006581008434295654,0.012921791523694992,0.0015974044799804688
558,1680362723832,-0.018290935084223747,-0.003896176815032959,0.003926277160644531,-0.018290935084223747,-0.003896176815032959,0.003926277160644531
559,1680362723841,-0.001567525789141655,0.010272257030010223,-0.00554656982421875,-0.001567525789141655,0.010272257030010223,-0.00554656982421875
560,1680362723851,0.0032111871987581253,0.005598820745944977,-0.0007572174072265625,0.0032111871987581253,0.005598820745944977,-0.0007572174072265625
561,1680362723860,0.0008725468069314957,-0.011195380240678787,-0.0077972412109375,0.0008725468069314957,-0.011195380240678787,-0.0077972412109375
562,1680362723870,-0.0062652043998241425,-0.013267610222101212,0.02057170867919922,-0.0062652043998241425,-0.013267610222101212,0.02057170867919922
563,1680362723879,-0.008572589606046677,-0.005785204470157623,0.013162612915039062,-0.008572589606046677,-0.005785204470157623,0.013162612915039062
564,1680362723889,-0.0014185290783643723,-0.010288603603839874,0.003536224365234375,-0.0014185290783643723,-0.010288603603839874,0.003536224365234375
565,1680362723899,-0.0061628371477127075,0.010926131159067154,-0.005930900573730469,-0.0061628371477127075,0.010926131159067154,-0.005930900573730469
566,1680362723908,0.017299458384513855,-0.01290993019938469,0.005931854248046875,0.017299458384513855,-0.01290993019938469,0.005931854248046875
567,1680362723918,0.00519152358174324,0.015528254210948944,-0.015337944030761719,0.00519152358174324,0.015528254210948944,-0.015337944030761719
568,1680362723927,0.00035249441862106323,0.003490537405014038,-0.0056743621826171875,0.00035249441862106323,0.003490537405014038,-0.0056743621826171875
569,1680362723937,0.012054625898599625,-0.0012940391898155212,-0.014987945556640625,0.012054625898599625,-0.0012940391898155212,-0.014987945556640625
570,1680362723947,0.0025989413261413574,0.017415083944797516,-0.01709461212158203,0.0025989413261413574,0.017415083944797516,-0.01709461212158203
571,1680362723957,0.0003825463354587555,0.002892211079597473,-0.0003509521484375,0.0003825463354587555,0.002892211079597473,-0.0003509521484375
572,1680362723966,0.014439035207033157,-0.016114257276058197,0.0043659210205078125,0.014439035207033157,-0.016114257276058197,0.0043659210205078125
573,1680362723975,-0.002332627773284912,-0.006453283131122589,-0.0027589797973632812,-0.002332627773284912,-0.006453283131122589,-0.0027589797973632812
574,1680362723985,0.004702255129814148,-0.010720685124397278,0.009051322937011719,0.004702255129814148,-0.010720685124397278,0.009051322937011719
575,1680362723995,-0.011892382055521011,0.0033362209796905518,-0.007575035095214844,-0.011892382055521011,0.0033362209796905518,-0.007575035095214844
576,1680362724005,-0.004698168486356735,0.0010217949748039246,0.004315376281738281,-0.004698168486356735,0.0010217949748039246,0.004315376281738281
577,1680362724014,0.0141548290848732,-0.013241726905107498,0.0018873214721679688,0.0141548290848732,-0.013241726905107498,0.0018873214721679688
578,1680362724023,-0.01448746770620346,0.01071552187204361,-0.0028400421142578125,-0.01448746770620346,0.01071552187204361,-0.0028400421142578125
579,1680362724033,0.006981056183576584,-0.00840674340724945,0.0019025802612304688,0.006981056183576584,-0.00840674340724945,0.0019025802612304688
580,1680362724042,-0.0025990232825279236,0.014909252524375916,-0.014590263366699219,-0.0025990232825279236,0.014909252524375916,-0.014590263366699219
581,1680362724052,0.004552997648715973,0.012177743017673492,-0.0072956085205078125,0.004552997648715973,0.012177743017673492,-0.0072956085205078125
582,1680362724062,0.011488713324069977,-0.013811003416776657,0.006946563720703125,0.011488713324069977,-0.013811003416776657,0.006946563720703125
583,1680362724071,0.011353418231010437,-0.008997097611427307,-0.004933357238769531,0.011353418231010437,-0.008997097611427307,-0.004933357238769531
584,1680362724081,0.0017971396446228027,0.007260140031576157,-0.011919975280761719,0.0017971396446228027,0.007260140031576157,-0.011919975280761719
585,1680362724091,-0.0005175061523914337,0.004542838782072067,-0.0022993087768554688,-0.0005175061523914337,0.004542838782072067,-0.0022993087768554688
586,1680362724100,0.0063748471438884735,0.004451725631952286,-0.009326934814453125,0.0063748471438884735,0.004451725631952286,-0.009326934814453125
587,1680362724110,0.0038569793105125427,-0.003025684505701065,-0.002105712890625,0.0038569793105125427,-0.003025684505701065,-0.002105712890625
588,1680362724118,-0.0008479394018650055,-0.005459018051624298,0.0002689361572265625,-0.0008479394018650055,-0.005459018051624298,0.0002689361572265625
589,1680362724129,-0.014897655695676804,0.01086476817727089,0.007330894470214844,-0.014897655695676804,0.01086476817727089,0.007330894470214844
590,1680362724138,-0.0029421821236610413,-0.003451254218816757,0.004853248596191406,-0.0029421821236610413,-0.003451254218816757,0.004853248596191406
591,1680362724148,0.008926540613174438,-0.0035214126110076904,-0.009347915649414062,0.008926540613174438,-0.0035214126110076904,-0.009347915649414062
592,1680362724158,0.0063665397465229034,-0.012885510921478271,0.0002155303955078125,0.0063665397465229034,-0.012885510921478271,0.0002155303955078125
593,1680362724167,-0.005671054124832153,0.017556510865688324,-0.01389312744140625,-0.005671054124832153,0.017556510865688324,-0.01389312744140625
594,1680362724177,0.0013067945837974548,0.02173357456922531,-0.006609916687011719,0.0013067945837974548,0.02173357456922531,-0.006609916687011719
595,1680362724187,-0.015231210738420486,0.0001842975616455078,0.005263328552246094,-0.015231210738420486,0.0001842975616455078,0.005263328552246094
596,1680362724197,-0.0030457936227321625,0.004861846566200256,-0.013641357421875,-0.0030457936227321625,0.004861846566200256,-0.013641357421875
597,1680362724206,-0.010006539523601532,0.014284808188676834,-0.006361961364746094,-0.010006539523601532,0.014284808188676834,-0.006361961364746094
598,1680362724215,-0.012124285101890564,-0.002428583800792694,0.007863044738769531,-0.012124285101890564,-0.002428583800792694,0.007863044738769531
599,1680362724225,9.20519232749939e-06,0.011939581483602524,-0.01815032958984375,9.20519232749939e-06,0.011939581483602524,-0.01815032958984375
600,1680362724235,-0.0024027451872825623,0.004658080637454987,-0.01784801483154297,-0.0024027451872825623,0.004658080637454987,-0.01784801483154297
601,1680362724244,-0.002418793737888336,0.006920747458934784,-0.015194892883300781,-0.002418793737888336,0.006920747458934784,-0.015194892883300781
602,1680362724254,-0.009613797068595886,0.011501085013151169,0.01329803466796875,-0.009613797068595886,0.011501085013151169,0.01329803466796875
603,1680362724264,0.014031972736120224,-0.012345653027296066,0.0036535263061523438,0.014031972736120224,-0.012345653027296066,0.0036535263061523438
604,1680362724273,0.008806966245174408,-0.012043334543704987,0.0059490203857421875,0.008806966245174408,-0.012043334543704987,0.0059490203857421875
605,1680362724283,0.0014247149229049683,-0.002337940037250519,0.005850791931152344,0.0014247149229049683,-0.002337940037250519,0.005850791931152344
606,1680362724292,-0.010419029742479324,0.014032885432243347,-0.010721206665039062,-0.010419029742479324,0.014032885432243347,-0.010721206665039062
607,1680362724302,-0.010189775377511978,0.020962290465831757,-0.012883186340332031,-0.010189775377511978,0.020962290465831757,-0.012883186340332031
608,1680362724312,-0.005476891994476318,0.0063660480082035065,-0.005616188049316406,-0.005476891994476318,0.0063660480082035065,-0.005616188049316406
609,1680362724319,-0.010264836251735687,0.0014212876558303833,-0.007878303527832031,-0.010264836251735687,0.0014212876558303833,-0.007878303527832031
610,1680362724330,-0.00790640339255333,-0.003314197063446045,-0.0030345916748046875,-0.00790640339255333,-0.003314197063446045,-0.0030345916748046875
611,1680362724340,0.001688782125711441,-0.0013679936528205872,-0.007697105407714844,0.001688782125711441,-0.0013679936528205872,-0.007697105407714844
612,1680362724350,0.011027354747056961,-0.010783400386571884,0.01595783233642578,0.011027354747056961,-0.010783400386571884,0.01595783233642578
613,1680362724359,-0.0008637756109237671,-0.0061335936188697815,-0.005480766296386719,-0.0008637756109237671,-0.0061335936188697815,-0.005480766296386719
614,1680362724369,0.00839097797870636,-0.017697948962450027,0.0016632080078125,0.00839097797870636,-0.017697948962450027,0.0016632080078125
615,1680362724378,-0.006036438047885895,0.00846434012055397,-0.0030603408813476562,-0.006036438047885895,0.00846434012055397,-0.0030603408813476562
616,1680362724388,0.003415677696466446,0.013115834444761276,-0.012415885925292969,0.003415677696466446,0.013115834444761276,-0.012415885925292969
617,1680362724398,0.008013684302568436,-0.003466203808784485,0.006608009338378906,0.008013684302568436,-0.003466203808784485,0.006608009338378906
618,1680362724407,-0.008762989193201065,0.013259541243314743,-0.009976387023925781,-0.008762989193201065,0.013259541243314743,-0.009976387023925781
619,1680362724415,-0.00867341086268425,-0.003773920238018036,0.0019521713256835938,-0.00867341086268425,-0.003773920238018036,0.0019521713256835938
620,1680362724426,0.0029536746442317963,-0.00855046883225441,-0.005131721496582031,0.0029536746442317963,-0.00855046883225441,-0.005131721496582031
621,1680362724435,-0.0018478669226169586,0.0032283030450344086,-0.00033473968505859375,-0.0018478669226169586,0.0032283030450344086,-0.00033473968505859375
622,1680362724446,0.002935495227575302,0.0008033998310565948,-0.01209259033203125,0.002935495227575302,0.0008033998310565948,-0.01209259033203125
623,1680362724456,0.005074463784694672,-0.010988842695951462,-0.00012683868408203125,0.005074463784694672,-0.010988842695951462,-0.00012683868408203125
624,1680362724465,-0.018705472350120544,0.007783614099025726,-0.016599655151367188,-0.018705472350120544,0.007783614099025726,-0.016599655151367188
625,1680362724475,-0.011397697031497955,0.002927083522081375,0.0024929046630859375,-0.011397697031497955,0.002927083522081375,0.0024929046630859375
626,1680362724484,-0.0110398568212986,0.014738354831933975,-0.00460052490234375,-0.0110398568212986,0.014738354831933975,-0.00460052490234375
627,1680362724494,-0.01796405017375946,0.009780917316675186,-0.0068798065185546875,-0.01796405017375946,0.009780917316675186,-0.0068798065185546875
628,1680362724504,-0.01066863164305687,0.005003347992897034,0.0003032684326171875,-0.01066863164305687,0.005003347992897034,0.0003032684326171875
629,1680362724513,0.001328304409980774,0.016555845737457275,-0.01617717742919922,0.001328304409980774,0.016555845737457275,-0.01617717742919922
630,1680362724523,0.005961485207080841,0.00012633949518203735,-0.00414276123046875,0.005961485207080841,0.00012633949518203735,-0.00414276123046875
631,1680362724532,-0.0011336356401443481,0.007400147616863251,0.0006389617919921875,-0.0011336356401443481,0.007400147616863251,0.0006389617919921875
632,1680362724540,0.001170232892036438,0.009729739278554916,-0.008793830871582031,0.001170232892036438,0.009729739278554916,-0.008793830871582031
633,1680362724552,-0.0059578269720077515,0.004840388894081116,-0.003935813903808594,-0.0059578269720077515,0.004840388894081116,-0.003935813903808594
634,1680362724561,-0.0013149157166481018,0.0022767819464206696,-0.0062255859375,-0.0013149157166481018,0.0022767819464206696,-0.0062255859375
635,1680362724571,0.01041477918624878,-0.01178315281867981,-0.010817527770996094,0.01041477918624878,-0.01178315281867981,-0.010817527770996094
636,1680362724580,-0.0013535581529140472,0.012037474662065506,-0.01299285888671875,-0.0013535581529140472,0.012037474662065506,-0.01299285888671875
637,1680362724590,0.0009534284472465515,-0.006882615387439728,-0.0033674240112304688,0.0009534284472465515,-0.006882615387439728,-0.0033674240112304688
638,1680362724600,0.012659970670938492,-0.011382471770048141,-0.0033102035522460938,0.012659970670938492,-0.011382471770048141,-0.0033102035522460938
639,1680362724609,0.007681291550397873,-0.013325445353984833,0.010865211486816406,0.007681291550397873,-0.013325445353984833,0.010865211486816406
640,1680362724619,0.005141489207744598,0.026868179440498352,-0.015198707580566406,0.005141489207744598,0.026868179440498352,-0.015198707580566406
641,1680362724629,-0.004295855760574341,0.012173537164926529,-0.010234832763671875,-0.004295855760574341,0.012173537164926529,-0.010234832763671875
642,1680362724638,-0.0017007067799568176,0.009502727538347244,-0.0030126571655273438,-0.0017007067799568176,0.009502727538347244,-0.0030126571655273438
643,1680362724648,-0.013491597026586533,0.0019255392253398895,-0.0029630661010742188,-0.013491597026586533,0.0019255392253398895,-0.0029630661010742188
644,1680362724658,-0.008402489125728607,0.0162210613489151,-0.014677047729492188,-0.008402489125728607,0.0162210613489151,-0.014677047729492188
645,1680362724667,0.005912914872169495,-0.0074794720858335495,0.00909423828125,0.005912914872169495,-0.0074794720858335495,0.00909423828125
646,1680362724677,0.001046881079673767,-0.011969383805990219,-0.00046443939208984375,0.001046881079673767,-0.011969383805990219,-0.00046443939208984375
647,1680362724686,-0.0013671666383743286,-0.0024743005633354187,-0.007523536682128906,-0.0013671666383743286,-0.0024743005633354187,-0.007523536682128906
648,1680362724696,0.0009398758411407471,-0.009741809219121933,0.006720542907714844,0.0009398758411407471,-0.009741809219121933,0.006720542907714844
649,1680362724705,-0.0013605132699012756,0.025583863258361816,-0.009852409362792969,-0.0013605132699012756,0.025583863258361816,-0.009852409362792969
650,1680362724715,-0.008573252707719803,0.018202196806669235,0.0020761489868164062,-0.008573252707719803,0.018202196806669235,0.0020761489868164062
651,1680362724725,-0.010954372584819794,-0.0009471829980611801,0.004383087158203125,-0.010954372584819794,-0.0009471829980611801,0.004383087158203125
652,1680362724734,-0.006004780530929565,-0.005531657487154007,-0.0027418136596679688,-0.006004780530929565,-0.005531657487154007,-0.0027418136596679688
653,1680362724744,-0.005848202854394913,0.006309030577540398,-0.009748458862304688,-0.005848202854394913,0.006309030577540398,-0.009748458862304688
654,1680362724753,0.0013576894998550415,0.008880220353603363,0.004519462585449219,0.0013576894998550415,0.008880220353603363,0.004519462585449219
655,1680362724763,0.0012793317437171936,0.00176231749355793,-0.012014389038085938,0.0012793317437171936,0.00176231749355793,-0.012014389038085938
656,1680362724772,0.0034457631409168243,-0.010045578703284264,0.007002830505371094,0.0034457631409168243,-0.010045578703284264,0.007002830505371094
657,1680362724782,0.01733977720141411,-0.016945598646998405,0.0068874359130859375,0.01733977720141411,-0.016945598646998405,0.0068874359130859375
658,1680362724792,-0.0018212758004665375,0.006848059594631195,0.0067729949951171875,-0.0018212758004665375,0.006848059594631195,0.0067729949951171875
659,1680362724802,-0.004314396530389786,0.025646066293120384,-0.012154579162597656,-0.004314396530389786,0.025646066293120384,-0.012154579162597656
660,1680362724811,-0.02066090703010559,0.0062757860869169235,0.013929367065429688,-0.02066090703010559,0.0062757860869169235,0.013929367065429688
661,1680362724821,-0.004010308533906937,-0.0029157139360904694,-0.012183189392089844,-0.004010308533906937,-0.0029157139360904694,-0.012183189392089844
662,1680362724830,-0.003999017179012299,0.0020380597561597824,0.002140045166015625,-0.003999017179012299,0.0020380597561597824,0.002140045166015625
663,1680362724840,0.01729545369744301,-0.02613711729645729,0.013868331909179688,0.01729545369744301,-0.02613711729645729,0.013868331909179688
664,1680362724850,0.005300018936395645,-0.011485371738672256,-0.00048160552978515625,0.005300018936395645,-0.011485371738672256,-0.00048160552978515625
665,1680362724859,0.0028002671897411346,0.0030347146093845367,-0.00988006591796875,0.0028002671897411346,0.0030347146093845367,-0.00988006591796875
666,1680362724868,0.0004544109106063843,-0.008906606584787369,0.011454582214355469,0.0004544109106063843,-0.008906606584787369,0.011454582214355469
667,1680362724878,0.007346171885728836,0.014753509312868118,-0.012262344360351562,0.007346171885728836,0.014753509312868118,-0.012262344360351562
668,1680362724888,-0.00930725410580635,0.009908054023981094,-0.0050048828125,-0.00930725410580635,0.009908054023981094,-0.0050048828125
669,1680362724897,-0.01390480250120163,0.005015771836042404,-0.007277488708496094,-0.01390480250120163,0.005015771836042404,-0.007277488708496094
670,1680362724907,-0.009032372385263443,-0.004602860659360886,-8.869171142578125e-05,-0.009032372385263443,-0.004602860659360886,-8.869171142578125e-05
671,1680362724917,0.00046989694237709045,-0.009365171194076538,0.014032363891601562,0.00046989694237709045,-0.009365171194076538,0.014032363891601562
672,1680362724926,-0.0042906031012535095,-0.013809353113174438,0.011444091796875,-0.0042906031012535095,-0.013809353113174438,0.011444091796875
673,1680362724936,-0.001919470727443695,0.009595740586519241,-0.012274742126464844,-0.001919470727443695,0.009595740586519241,-0.012274742126464844
674,1680362724945,0.01206396147608757,-0.004586871713399887,0.013813018798828125,0.01206396147608757,-0.004586871713399887,0.013813018798828125
675,1680362724955,0.011694587767124176,-0.01640155538916588,-0.0005359649658203125,0.011694587767124176,-0.01640155538916588,-0.0005359649658203125
676,1680362724965,-0.014327257871627808,-0.0046063438057899475,0.015947341918945312,-0.014327257871627808,-0.0046063438057899475,0.015947341918945312
677,1680362724974,-0.009560216218233109,0.00026296451687812805,0.0015630722045898438,-0.009560216218233109,0.00026296451687812805,0.0015630722045898438
678,1680362724984,-0.004633691161870956,0.007309898734092712,-0.005530357360839844,-0.004633691161870956,0.007309898734092712,-0.005530357360839844
679,1680362724993,-0.009323768317699432,-0.002346958965063095,0.001628875732421875,-0.009323768317699432,-0.002346958965063095,0.001628875732421875
680,1680362725003,-0.013808619230985641,-0.009390342980623245,0.01100921630859375,-0.013808619230985641,-0.009390342980623245,0.01100921630859375
681,1680362725012,0.009892817586660385,-0.007119014859199524,-0.008006095886230469,0.009892817586660385,-0.007119014859199524,-0.008006095886230469
682,1680362725022,0.00036109983921051025,-0.016759146004915237,0.013312339782714844,0.00036109983921051025,-0.016759146004915237,0.013312339782714844
683,1680362725032,-0.013805210590362549,0.009387500584125519,-0.01043701171875,-0.013805210590362549,0.009387500584125519,-0.01043701171875
684,1680362725042,0.0004731789231300354,0.01637967862188816,-0.007921218872070312,0.0004731789231300354,0.01637967862188816,-0.007921218872070312
685,1680362725051,-0.01605105772614479,0.003990691155195236,0.008685111999511719,-0.01605105772614479,0.003990691155195236,0.008685111999511719
686,1680362725061,-0.006432168185710907,0.008283097296953201,-0.010275840759277344,-0.006432168185710907,0.008283097296953201,-0.010275840759277344
687,1680362725070,-0.008624695241451263,-0.0014049839228391647,-0.000698089599609375,-0.008624695241451263,-0.0014049839228391647,-0.000698089599609375
688,1680362725080,-0.001358039677143097,-0.0013973508030176163,-0.005397796630859375,-0.001358039677143097,-0.0013973508030176163,-0.005397796630859375
689,1680362725088,-0.0013916566967964172,-0.017849702388048172,0.0017595291137695312,-0.0013916566967964172,-0.017849702388048172,0.0017595291137695312
690,1680362725097,0.003158930689096451,0.005958646535873413,-0.017099380493164062,0.003158930689096451,0.005958646535873413,-0.017099380493164062
691,1680362725107,0.01258489117026329,-0.017683466896414757,0.009068489074707031,0.01258489117026329,-0.017683466896414757,0.009068489074707031
692,1680362725117,0.017015643417835236,-0.022227365523576736,0.008917808532714844,0.017015643417835236,-0.022227365523576736,0.008917808532714844
693,1680362725126,-0.011449873447418213,0.0038985759019851685,0.006412506103515625,-0.011449873447418213,0.0038985759019851685,0.006412506103515625
694,1680362725136,-0.018254827708005905,0.010758867487311363,-0.0031032562255859375,-0.018254827708005905,0.010758867487311363,-0.0031032562255859375
695,1680362725146,-0.008710741996765137,0.0035124383866786957,-0.0030508041381835938,-0.008710741996765137,0.0035124383866786957,-0.0030508041381835938
696,1680362725156,-0.0016667693853378296,-0.01750834845006466,0.00640869140625,-0.0016667693853378296,-0.01750834845006466,0.00640869140625
697,1680362725166,-0.008650124073028564,0.0014718491584062576,0.006300926208496094,-0.008650124073028564,0.0014718491584062576,0.006300926208496094
698,1680362725175,0.008025113493204117,-0.0034903474152088165,-0.012620925903320312,0.008025113493204117,-0.0034903474152088165,-0.012620925903320312
699,1680362725185,0.014887560158967972,0.010656686499714851,-0.005358695983886719,0.014887560158967972,0.010656686499714851,-0.005358695983886719
700,1680362725195,-0.008831091225147247,-0.01540364883840084,0.0064945220947265625,-0.008831091225147247,-0.01540364883840084,0.0064945220947265625
701,1680362725205,0.010202862322330475,0.006009001284837723,-0.012429237365722656,0.010202862322330475,0.006009001284837723,-0.012429237365722656
702,1680362725214,-0.0016750767827033997,0.003649285063147545,0.004238128662109375,-0.0016750767827033997,0.003649285063147545,0.004238128662109375
703,1680362725224,-0.011013820767402649,-0.0011383350938558578,0.00652313232421875,-0.011013820767402649,-0.0011383350938558578,0.00652313232421875
704,1680362725233,0.000989224761724472,-0.015127038583159447,-0.007704734802246094,0.000989224761724472,-0.015127038583159447,-0.007704734802246094
705,1680362725243,-0.013187550008296967,-0.012549616396427155,-0.0005092620849609375,-0.013187550008296967,-0.012549616396427155,-0.0005092620849609375
706,1680362725252,-0.02478734776377678,-0.01447208784520626,0.008908271789550781,-0.02478734776377678,-0.01447208784520626,0.008908271789550781
707,1680362725262,-0.008082091808319092,-0.009774981066584587,-0.005359649658203125,-0.008082091808319092,-0.009774981066584587,-0.005359649658203125
708,1680362725272,0.0012917444109916687,0.002135666087269783,-0.005269050598144531,0.0012917444109916687,0.002135666087269783,-0.005269050598144531
709,1680362725281,0.010748635977506638,-0.000271359458565712,0.0042266845703125,0.010748635977506638,-0.000271359458565712,0.0042266845703125
710,1680362725291,0.0058020055294036865,-0.00969003513455391,0.011223793029785156,0.0058020055294036865,-0.00969003513455391,0.011223793029785156
711,1680362725301,-0.010937921702861786,0.006818754598498344,0.006325721740722656,-0.010937921702861786,0.006818754598498344,0.006325721740722656
712,1680362725310,-0.01539640873670578,0.0016423407942056656,0.006218910217285156,-0.01539640873670578,0.0016423407942056656,0.006218910217285156
713,1680362725320,-0.024603690952062607,-0.0056784022599458694,0.0037584304809570312,-0.024603690952062607,-0.0056784022599458694,0.0037584304809570312
714,1680362725329,-0.010144982486963272,0.0036971885710954666,-0.0033559799194335938,-0.010144982486963272,0.0036971885710954666,-0.0033559799194335938
715,1680362725339,-0.00038470327854156494,-0.003657802939414978,0.006106376647949219,-0.00038470327854156494,-0.003657802939414978,0.006106376647949219
716,1680362725349,0.008973430842161179,-0.0058557018637657166,-0.01752185821533203,0.008973430842161179,-0.0058557018637657166,-0.01752185821533203
717,1680362725358,-0.012403346598148346,-0.0035296250134706497,0.0016012191772460938,-0.012403346598148346,-0.0035296250134706497,0.0016012191772460938
718,1680362725366,0.004319082945585251,-0.005954505875706673,-0.010190010070800781,0.004319082945585251,-0.005954505875706673,-0.010190010070800781
719,1680362725378,0.01606658101081848,0.010813049972057343,-0.0053234100341796875,0.01606658101081848,0.010813049972057343,-0.0053234100341796875
720,1680362725387,-0.0007171854376792908,-0.005842471495270729,-0.0005235671997070312,-0.0007171854376792908,-0.005842471495270729,-0.0005235671997070312
721,1680362725397,-0.0054727159440517426,0.017878757789731026,-0.0005140304565429688,-0.0054727159440517426,0.017878757789731026,-0.0005140304565429688
722,1680362725406,-0.007681585848331451,-0.008317666128277779,0.004191398620605469,-0.007681585848331451,-0.008317666128277779,0.004191398620605469
723,1680362725416,-0.010077577084302902,-0.006175421178340912,-0.0076427459716796875,-0.010077577084302902,-0.006175421178340912,-0.0076427459716796875
724,1680362725425,-0.012194346636533737,-0.006087843328714371,0.0019073486328125,-0.012194346636533737,-0.006087843328714371,0.0019073486328125
725,1680362725435,0.0020570196211338043,0.008117437362670898,-0.0075473785400390625,0.0020570196211338043,0.008117437362670898,-0.0075473785400390625
726,1680362725445,-0.0025052912533283234,-0.0015682857483625412,0.0066967010498046875,-0.0025052912533283234,-0.0015682857483625412,0.0066967010498046875
727,1680362725454,0.004644189029932022,-0.015438327565789223,0.016008377075195312,0.004644189029932022,-0.015438327565789223,0.016008377075195312
728,1680362725464,0.011690042912960052,0.005862666293978691,-0.012497901916503906,0.011690042912960052,0.005862666293978691,-0.012497901916503906
729,1680362725474,0.009195476770401001,-0.0012056250125169754,-0.005237579345703125,0.009195476770401001,-0.0012056250125169754,-0.005237579345703125
730,1680362725483,-0.00737689808011055,0.005753576755523682,-0.0027952194213867188,-0.00737689808011055,0.005753576755523682,-0.0027952194213867188
731,1680362725493,0.0020974278450012207,-0.006121596321463585,0.009015083312988281,0.0020974278450012207,-0.006121596321463585,0.009015083312988281
732,1680362725502,0.006829846650362015,-0.006034914404153824,0.0018129348754882812,0.006829846650362015,-0.006034914404153824,0.0018129348754882812
733,1680362725512,0.004416462033987045,0.012529194355010986,0.001781463623046875,0.004416462033987045,0.012529194355010986,0.001781463623046875
734,1680362725522,-0.012172959744930267,-0.004043007269501686,-0.010010719299316406,-0.012172959744930267,-0.004043007269501686,-0.010010719299316406
735,1680362725531,-0.0002626478672027588,0.0030610859394073486,-0.009843826293945312,-0.0002626478672027588,0.0030610859394073486,-0.009843826293945312
736,1680362725541,-0.00042657554149627686,-0.0017167329788208008,-0.0026264190673828125,-0.00042657554149627686,-0.0017167329788208008,-0.0026264190673828125
737,1680362725550,0.004221372306346893,0.0221745353192091,-0.009634017944335938,0.004221372306346893,0.0221745353192091,-0.009634017944335938
738,1680362725560,0.011274270713329315,0.014722459018230438,-0.011829376220703125,0.011274270713329315,0.014722459018230438,-0.011829376220703125
739,1680362725569,-0.010156195610761642,0.009973686188459396,0.00013256072998046875,-0.010156195610761642,0.009973686188459396,0.00013256072998046875
740,1680362725579,-0.02169463410973549,0.005207506939768791,-0.004581451416015625,-0.02169463410973549,0.005207506939768791,-0.004581451416015625
741,1680362725589,0.007073391228914261,-0.009126484394073486,0.009613037109375,0.007073391228914261,-0.009126484394073486,0.009613037109375
742,1680362725598,-0.0072199515998363495,-0.009101960808038712,-0.0023107528686523438,-0.0072199515998363495,-0.009101960808038712,-0.0023107528686523438
743,1680362725608,-0.0023324117064476013,0.0005540009588003159,0.0024394989013671875,-0.0023324117064476013,0.0005540009588003159,0.0024394989013671875
744,1680362725618,-0.0023497827351093292,-0.004167348146438599,0.0047397613525390625,-0.0023497827351093292,-0.004167348146438599,0.0047397613525390625
745,1680362725627,-0.0023666955530643463,-0.004001062363386154,-0.007102012634277344,-0.0023666955530643463,-0.004001062363386154,-0.007102012634277344
746,1680362725637,-0.009338561445474625,-0.010905029252171516,0.018898963928222656,-0.009338561445474625,-0.010905029252171516,0.018898963928222656
747,1680362725646,0.009591799229383469,-0.010514885187149048,-0.0049419403076171875,0.009591799229383469,-0.010514885187149048,-0.0049419403076171875
748,1680362725656,0.011618979275226593,-0.019650986418128014,0.002208709716796875,0.011618979275226593,-0.019650986418128014,0.002208709716796875
749,1680362725665,-0.007461186498403549,-0.0004113316535949707,-0.011946678161621094,-0.007461186498403549,-0.0004113316535949707,-0.011946678161621094
750,1680362725675,-0.00021357834339141846,0.034773439168930054,-0.018815994262695312,-0.00021357834339141846,0.034773439168930054,-0.018815994262695312
751,1680362725684,0.009029492735862732,0.0012286603450775146,0.00032901763916015625,0.009029492735862732,0.0012286603450775146,0.00032901763916015625
752,1680362725694,0.004223562777042389,0.003772268071770668,0.00032329559326171875,0.004223562777042389,0.003772268071770668,0.00032329559326171875
753,1680362725704,0.013632472604513168,-0.015347082167863846,0.012080192565917969,0.013632472604513168,-0.015347082167863846,0.012080192565917969
754,1680362725714,-0.0006579793989658356,-0.008390136063098907,0.009522438049316406,-0.0006579793989658356,-0.008390136063098907,0.009522438049316406
755,1680362725723,-0.0007030889391899109,-0.010733619332313538,0.00231170654296875,-0.0007030889391899109,-0.010733619332313538,0.00231170654296875
756,1680362725733,-0.007814556360244751,0.0008567143231630325,0.0022726058959960938,-0.007814556360244751,0.0008567143231630325,0.0022726058959960938
757,1680362725742,-0.0053841732442379,-0.006560249254107475,0.0022335052490234375,-0.0053841732442379,-0.006560249254107475,0.0022335052490234375
758,1680362725752,0.006412990391254425,-0.025296920910477638,0.006893157958984375,0.006412990391254425,-0.025296920910477638,0.006893157958984375
759,1680362725761,-0.005625173449516296,0.0031226351857185364,-0.0073413848876953125,-0.005625173449516296,0.0031226351857185364,-0.0073413848876953125
760,1680362725771,0.0038203075528144836,0.0004736408591270447,0.0022029876708984375,0.0038203075528144836,0.0004736408591270447,0.0022029876708984375
761,1680362725780,0.006056260317564011,-0.004582725465297699,0.004506111145019531,0.006056260317564011,-0.004582725465297699,0.004506111145019531
762,1680362725790,-0.005864087492227554,0.00017471052706241608,0.0020904541015625,-0.005864087492227554,0.00017471052706241608,0.0020904541015625
763,1680362725800,0.00594140961766243,0.0027369391173124313,-0.012063026428222656,0.00594140961766243,0.0027369391173124313,-0.012063026428222656
764,1680362725809,-0.0033975839614868164,0.00267598032951355,0.0022563934326171875,-0.0033975839614868164,0.00267598032951355,0.0022563934326171875
765,1680362725820,-0.007996216416358948,0.01662297360599041,-0.004849433898925781,-0.007996216416358948,0.01662297360599041,-0.004849433898925781
766,1680362725829,-0.0053392089903354645,-0.01694134809076786,0.025823593139648438,-0.0053392089903354645,-0.01694134809076786,0.025823593139648438
767,1680362725838,-0.012358080595731735,-0.007041752338409424,0.00891876220703125,-0.012358080595731735,-0.007041752338409424,0.00891876220703125
768,1680362725848,-0.005155913531780243,0.00033611804246902466,-0.0029926300048828125,-0.005155913531780243,0.00033611804246902466,-0.0029926300048828125
769,1680362725857,0.006637446582317352,0.014771025627851486,-0.017061233520507812,0.006637446582317352,0.014771025627851486,-0.017061233520507812
770,1680362725867,-0.0006935857236385345,-0.0018532387912273407,-0.000301361083984375,-0.0006935857236385345,-0.0018532387912273407,-0.000301361083984375
771,1680362725877,0.0157216377556324,-0.001949947327375412,-0.0026521682739257812,0.0157216377556324,-0.001949947327375412,-0.0026521682739257812
772,1680362725887,0.0037522464990615845,-0.016037048771977425,0.018563270568847656,0.0037522464990615845,-0.016037048771977425,0.018563270568847656
773,1680362725896,-0.008241578936576843,-0.01791706494987011,0.02532196044921875,-0.008241578936576843,-0.01791706494987011,0.02532196044921875
774,1680362725905,-0.0010931938886642456,-0.005758097395300865,-0.0009822845458984375,-0.0010931938886642456,-0.005758097395300865,-0.0009822845458984375
775,1680362725915,-0.0034867599606513977,0.015267917886376381,-0.012730598449707031,-0.0034867599606513977,0.015267917886376381,-0.012730598449707031
776,1680362725924,-0.01055200770497322,-0.003817889839410782,-0.00075531005859375,-0.01055200770497322,-0.003817889839410782,-0.00075531005859375
777,1680362725934,-0.00796394795179367,0.009998232126235962,-0.0030994415283203125,-0.00796394795179367,0.009998232126235962,-0.0030994415283203125
778,1680362725944,-0.01976216956973076,-0.0018350109457969666,-0.0030469894409179688,-0.01976216956973076,-0.0018350109457969666,-0.0030469894409179688
779,1680362725953,0.004150018095970154,-0.0014835074543952942,-0.0029954910278320312,0.004150018095970154,-0.0014835074543952942,-0.0029954910278320312
780,1680362725963,-0.0030268169939517975,-0.006058285012841225,-0.0053005218505859375,-0.0030268169939517975,-0.006058285012841225,-0.0053005218505859375
781,1680362725972,-0.0029198750853538513,0.010599803179502487,-0.0005006790161132812,-0.0029198750853538513,0.010599803179502487,-0.0005006790161132812
782,1680362725982,0.004012230783700943,0.010631825774908066,-0.0052032470703125,0.004012230783700943,0.010631825774908066,-0.0052032470703125
783,1680362725991,-0.010229751467704773,-0.015428433194756508,0.004291534423828125,-0.010229751467704773,-0.015428433194756508,0.004291534423828125
784,1680362726001,0.008827511221170425,0.005984628573060036,-0.009883880615234375,0.008827511221170425,0.005984628573060036,-0.009883880615234375
785,1680362726011,-0.01020631194114685,0.005643634125590324,0.0020437240600585938,-0.01020631194114685,0.005643634125590324,0.0020437240600585938
786,1680362726020,0.006270933896303177,0.00800180435180664,-0.009753227233886719,0.006270933896303177,0.00800180435180664,-0.009753227233886719
787,1680362726030,0.0037546344101428986,-0.010977569967508316,0.0021724700927734375,0.0037546344101428986,-0.010977569967508316,0.0021724700927734375
788,1680362726040,-0.008238881826400757,-0.008342007175087929,0.009189605712890625,-0.008238881826400757,-0.008342007175087929,0.009189605712890625
789,1680362726049,0.005961563438177109,-0.0012784916907548904,-0.0050830841064453125,0.005961563438177109,-0.0012784916907548904,-0.0050830841064453125
790,1680362726059,-0.003602035343647003,-0.0035014357417821884,0.009121894836425781,-0.003602035343647003,-0.0035014357417821884,0.009121894836425781
791,1680362726069,-0.027125276625156403,0.0014613382518291473,0.00661468505859375,-0.027125276625156403,0.0014613382518291473,0.00661468505859375
792,1680362726078,-0.0007343180477619171,0.006357453763484955,-0.017022132873535156,-0.0007343180477619171,0.006357453763484955,-0.017022132873535156
793,1680362726088,0.01098553091287613,-0.002947913482785225,-0.009670257568359375,0.01098553091287613,-0.002947913482785225,-0.009670257568359375
794,1680362726097,-0.001017145812511444,-0.0005734767764806747,-0.007168769836425781,-0.001017145812511444,-0.0005734767764806747,-0.007168769836425781
795,1680362726107,-0.00812319666147232,-0.005275662988424301,1.811981201171875e-05,-0.00812319666147232,-0.005275662988424301,1.811981201171875e-05
796,1680362726117,-0.010399952530860901,-0.0001704394817352295,0.0047149658203125,-0.010399952530860901,-0.0001704394817352295,0.0047149658203125
797,1680362726127,-0.012623395770788193,-0.007122870534658432,0.01641559600830078,-0.012623395770788193,-0.007122870534658432,0.01641559600830078
798,1680362726136,-0.0077721476554870605,0.00014484301209449768,-0.0026874542236328125,-0.0077721476554870605,0.00014484301209449768,-0.0026874542236328125
799,1680362726145,-0.005230400711297989,-0.006812471896409988,0.0020685195922851562,-0.005230400711297989,-0.006812471896409988,0.0020685195922851562
800,1680362726269,-0.005447525531053543,0.005653606727719307,-0.0050182342529296875,-0.005447525531053543,0.005653606727719307,-0.0050182342529296875
801,1680362726283,0.006462574005126953,-0.020226888358592987,0.011540412902832031,0.006462574005126953,-0.020226888358592987,0.011540412902832031
802,1680362726288,-0.010175950825214386,0.003621898591518402,-0.0027713775634765625,-0.010175950825214386,0.003621898591518402,-0.0027713775634765625
803,1680362726297,-0.005238797515630722,-0.008329598233103752,0.0066814422607421875,-0.005238797515630722,-0.008329598233103752,0.0066814422607421875
804,1680362726307,-0.009918451309204102,-0.010561451315879822,0.004214286804199219,-0.009918451309204102,-0.010561451315879822,0.004214286804199219
805,1680362726319,-0.0028540007770061493,-0.01980826072394848,0.006500244140625,-0.0028540007770061493,-0.01980826072394848,0.006500244140625
806,1680362726328,0.006545469164848328,-0.010085660964250565,-0.000659942626953125,0.006545469164848328,-0.010085660964250565,-0.000659942626953125
807,1680362726336,-0.0030275098979473114,-0.002529159188270569,-0.0030040740966796875,-0.0030275098979473114,-0.002529159188270569,-0.0030040740966796875
808,1680362726347,0.0015513971447944641,-0.004857733845710754,0.0040988922119140625,0.0015513971447944641,-0.004857733845710754,0.0040988922119140625
809,1680362726357,-0.0031148865818977356,0.006859516724944115,-0.0006666183471679688,-0.0031148865818977356,0.006859516724944115,-0.0006666183471679688
810,1680362726366,-0.007830820977687836,-0.007389795035123825,0.013463973999023438,-0.007830820977687836,-0.007389795035123825,0.013463973999023438
811,1680362726375,-0.005400508642196655,-0.004926273599267006,-0.0032358169555664062,-0.005400508642196655,-0.004926273599267006,-0.0032358169555664062
812,1680362726385,0.013576269149780273,-0.016848940402269363,0.006224632263183594,0.013576269149780273,-0.016848940402269363,0.006224632263183594
813,1680362726395,0.006114572286605835,-0.009306948632001877,-0.007997512817382812,0.006114572286605835,-0.009306948632001877,-0.007997512817382812
814,1680362726405,-0.003339536488056183,0.0048397742211818695,0.0015573501586914062,-0.003339536488056183,0.0048397742211818695,0.0015573501586914062
815,1680362726414,-0.008163239806890488,-0.0023080110549926758,-0.007890701293945312,-0.008163239806890488,-0.0023080110549926758,-0.007890701293945312
816,1680362726424,0.0013250745832920074,-0.013824272900819778,0.00400543212890625,0.0013250745832920074,-0.013824272900819778,0.00400543212890625
817,1680362726434,-0.005804829299449921,-0.001845378428697586,0.00629425048828125,-0.005804829299449921,-0.001845378428697586,0.00629425048828125
